Time;Ax;Ay;Az;Gx;Gy;Gz;BAR;P;R;UP;DOWN;prob
1670524480598;9.44596;1.36277;3.99489;-0.42;0.28;1.05;1;0;0;1;0;0.63016
1670524480795;9.31184;1.62143;3.69552;0.21;0.42;-0.21;1.0;0;0;1;0;0.38956
1670524480994;9.331;1.61424;3.83922;-0.21;-0.49;0;1.00002;0;0;1;0;0.3889
1670524481196;9.31423;1.59987;3.86556;-0.14;0.42;-1.05;1.00001;0;0;1;0;0.41804
1670524481400;9.34776;1.5879;3.85119;-1.05;-0.56;-0.63;1.00002;0;0;1;0;0.40486
1670524481598;9.29507;1.66933;3.87514;-0.84;0.14;-1.12;1.00002;0;0;1;0;0.40895
1670524481807;9.22322;1.63101;3.91825;1.19;1.19;1.19;1.00005;0;0;1;0;0.40961
1670524482007;9.62558;1.40109;4.038;-0.07;7.84;7.77;1.00005;0;0;1;0;0.41527
1670524482205;8.95977;1.69807;4.19847;-2.8;6.51;-43.95998;1.00007;0;0;1;0;0.23031
1670524482403;8.05206;2.35909;3.2716;-2.31;-28.41999;-14.27999;1.00008;0;0;1;0;0.40728
1670524482601;6.75875;2.9339;1.27415;44.86998;-8.82;-12.95;1.0001;0;0;1;0;0.92908
1670524482808;9.89383;5.39598;3.67636;19.73999;-6.79;-21.55999;1.00009;0;0;1;0;0.94279
1670524483003;9.33579;6.95274;1.73639;0.14;-2.1;-4.2;1.00008;0;0;1;0;0.89652
1670524483205;9.63516;5.4798;1.20709;75.24997;-45.42998;-15.53999;1.00012;0;0;1;0;0.55622
1670524483407;9.02683;3.56618;1.11129;-1.4;5.95;1.19;1.0001;0;0;1;0;0.99934
1670524483616;10.79196;4.77327;1.65017;-2.31;-10.5;7.35;1.00006;0;0;1;0;0.15309
1670524483822;9.55613;4.8068;0.73767;5.81;-1.61;-5.67;1.00008;0;0;0;1;0.4131
1670524484026;11.9751;4.63915;1.57832;16.23999;-4.06;1.05;1.00007;0;0;0;1;0.34527
1670524484227;10.17404;3.88472;0.31614;11.83;-2.94;13.3;1.00007;0;0;0;1;0.39912
1670524484431;9.14658;3.57816;0.57241;0.07;-9.1;14.41999;1.0001;0;0;0;1;0.26071
1670524484635;8.49274;2.71356;0.75922;1.54;-8.33;8.61;1.00013;0;0;0;1;0.33293
1670524484835;7.33595;1.84177;-0.41434;-4.48;2.17;7.77;1.00012;0;0;0;1;0.36669
1670524485048;10.17644;2.9818;0.08622;-5.46;-3.43;-0.84;1.00011;0;0;1;0;0.09969
1670524485251;9.48428;2.22737;-0.1437;14.76999;-2.52;1.61;1.00009;0;0;1;0;0.10919
1670524485469;7.7886;3.31471;-0.20118;21.13999;-1.75;-23.02999;1.00005;0;0;1;0;0.22354
1670524485653;8.48555;2.96743;-0.62031;7.28;2.17;-1.82;1.00002;0;0;1;0;0.51686
1670524485854;9.92975;4.60323;-1.25978;-0.21;13.3;0.21;1.0;0;0;1;0;0.15206
1670524486055;9.63277;4.31822;-0.23232;10.08;-1.82;-6.58;1.00003;0;0;1;0;0.02906
1670524486257;10.63389;4.64155;-0.69695;8.05;-1.33;-8.4;1.00003;0;0;1;0;0.2642
1670524486458;9.87946;5.34568;-0.88855;3.99;-0.35;-15.12;1.00001;0;0;1;0;0.16209
1670524486661;8.86876;5.25228;-0.71132;-19.59999;7.84;5.81;1.00001;0;0;0;1;0.17804
1670524486860;10.54288;5.0511;-1.22146;-17.77999;-8.82;20.43999;1.00003;0;0;0;1;0.03731
1670524487063;10.85183;4.93614;-0.83586;-1.96;-5.6;0.77;1.00002;0;0;0;1;0.06545
1670524487268;9.51302;4.11464;-0.92448;-6.09;-12.25;6.16;1.00001;0;0;0;1;0.12846
1670524487465;8.21252;3.63085;-0.85981;-1.26;-10.43;2.45;1.00001;0;0;0;1;0.20274
1670524487669;7.05573;3.38416;-1.43701;-9.1;-8.05;2.59;1.00004;0;0;0;1;0.28851
1670524487875;9.04599;3.58774;-0.76641;4.41;1.54;2.17;1.00008;0;0;0;1;0.18716
1670524488078;8.82565;3.7027;-0.88855;0.7;2.94;-1.26;1.00003;0;0;1;0;0.12497
1670524488281;8.95019;3.23567;-0.85742;14.63;2.17;-2.87;1.00002;0;0;1;0;0.10108
1670524488482;7.09644;2.91953;-0.51493;8.61;4.97;-6.09;1.00004;0;0;1;0;0.1764
1670524488685;8.43286;4.76848;-1.12326;1.89;1.54;-3.71;1.00001;0;0;1;0;0.20587
1670524488887;10.35367;5.13492;-0.67779;2.1;3.71;0.28;1.00004;0;0;1;0;0.15721
1670524489107;9.88904;5.13732;-1.00351;10.78;-1.68;1.68;1.00002;0;0;1;0;0.09569
1670524489292;10.13333;5.87738;-0.57001;-1.33;1.61;-5.04;1.00004;0;0;1;0;0.20937
1670524489511;9.29507;5.13492;-0.81431;0;1.89;-3.01;1.00003;0;0;0;1;0.13456
1670524489713;9.34297;5.52292;-0.63947;-6.86;-4.69;3.08;1.00003;0;0;0;1;0.13443
1670524489915;10.64107;5.97318;-0.65624;-1.68;-6.37;7.56;1.00006;0;0;0;1;0.18232
1670524490117;10.15967;5.26425;-0.99393;0.77;-7.84;-1.33;1.00009;0;0;0;1;0.18819
1670524490317;8.92624;4.99601;-1.11368;-11.48;4.9;4.76;1.00008;0;0;0;1;0.21268
1670524490520;8.44963;3.9901;-0.95082;-9.66;-6.37;15.25999;1.00006;0;0;0;1;0.05492
1670524490719;6.42584;2.76385;-0.67061;-2.24;1.47;9.38;1.00008;0;0;0;1;0.1364
1670524490929;9.01964;4.17212;-0.18202;5.88;-1.26;3.92;1.00006;0;0;0;1;0.16638
1670524491132;9.00527;3.99729;-0.62989;5.6;0.14;-0.7;1.00007;0;0;1;0;0.23394
1670524491334;9.36453;4.01645;-0.95801;-0.49;0.77;1.61;1.00006;0;0;1;0;0.17571
1670524491535;9.37411;3.77216;-0.90292;-3.22;1.4;-0.07;1.00008;0;0;1;0;0.09862
1670524491735;8.36341;3.40811;-1.06578;9.66;-0.7;3.22;1.00008;0;0;1;0;0.08067
1670524491938;7.62335;3.35303;-0.69216;6.65;5.39;-0.14;1.00006;0;0;1;0;0.19078
1670524492141;7.63532;3.23807;-0.48858;-4.27;1.61;-10.71;1.00004;0;0;1;0;0.15495
1670524492342;9.11065;4.72298;-0.79275;0.7;0.77;-1.75;1.00001;0;0;1;0;0.14816
1670524492543;10.40636;5.21396;-0.04551;4.55;1.96;0.35;1.00004;0;0;1;0;0.14554
1670524492752;9.70462;5.25467;-0.97956;12.46;4.97;-8.4;1.00007;0;0;1;0;0.16095
1670524492947;9.97286;5.89893;-0.85981;0.84;7.56;-3.5;1.00005;0;0;1;0;0.16127
1670524493155;8.52388;5.12774;-0.54846;-14.06999;-0.63;3.43;1.00004;0;0;0;1;0.08436
1670524493358;11.21588;6.32046;-0.70653;-5.95;-4.34;7.21;1.00007;0;0;0;1;0.1176
1670524493561;10.89255;5.70494;-0.86221;-0.28;-9.59;2.8;1.00007;0;0;0;1;0.12012
1670524493763;8.16702;4.64634;-0.23711;-21.34999;2.66;21.41999;1.0001;0;0;0;1;0.21193
1670524493967;8.37538;4.22721;0.11496;-3.64;-4.34;1.89;1.00013;0;0;0;1;0.06323
1670524494167;6.18634;2.57225;-0.05748;-11.76;3.01;2.59;1.00012;0;0;0;1;0.27037
1670524494369;9.24717;4.3302;-0.0479;7.14;0.98;6.65;1.00012;0;0;0;1;0.13689
1670524494575;9.31184;4.11704;-0.65863;9.45;-1.82;0.35;1.00009;0;0;1;0;0.21073
1670524494781;9.25675;4.13859;-0.69456;3.71;-1.54;-1.96;1.00008;0;0;1;0;0.21927
1670524494981;8.5119;3.43206;-0.68977;6.58;2.03;3.71;1.00005;0;0;1;0;0.17368
1670524495183;7.39822;3.40093;-0.46703;9.66;5.67;0.63;1.00004;0;0;1;0;0.1527
1670524495384;7.15392;3.41051;-0.23471;0;0.98;-13.50999;1.00004;0;0;1;0;0.20177
1670524495585;10.07585;4.77806;-0.75683;-0.84;5.74;-0.35;1.00003;0;0;1;0;0.24693
1670524495787;10.48061;5.68099;-0.40236;-2.03;-3.85;-2.24;1.00004;0;0;1;0;0.0685
1670524495997;9.93215;5.68338;-1.65256;3.22;-4.69;-9.03;1.00003;0;0;1;0;0.18006
1670524496190;9.67109;6.11688;-1.00112;-1.54;-5.95;-6.72;1.00004;0;0;1;0;0.17715
1670524496391;8.78254;4.93853;-0.80952;-9.38;0.56;7.7;1.00007;0;0;0;1;0.2381
1670524496595;11.52962;6.64139;-0.76401;-7.07;-2.87;6.58;1.00008;0;0;0;1;0.10077
1670524496795;10.60275;6.07377;-0.88376;8.12;-10.01;-4.41;1.00006;0;0;0;1;0.09726
1670524497000;7.98021;4.88105;-0.26585;-5.32;-5.53;9.1;1.00008;0;0;0;1;0.35477
1670524497200;8.08319;3.81527;-0.34728;-2.45;-1.89;8.89;1.00007;0;0;0;1;0.28565
1670524497403;6.22705;2.87881;-0.29938;-6.58;3.64;3.71;1.00006;0;0;0;1;0.18994
1670524497606;9.96328;4.46192;-0.68977;4.2;-2.17;-2.66;1.00006;0;0;0;1;0.15478
1670524497807;9.31902;3.87754;-0.90771;2.24;-1.54;0.98;1.00007;0;0;0;1;0.16417
1670524498012;9.16813;4.21763;-0.7233;-2.17;-0.77;3.01;1.00004;0;0;1;0;0.13531
1670524498215;9.07712;4.05237;-0.66103;-1.33;3.43;3.22;1.00003;0;0;1;0;0.12602
1670524498419;7.98021;3.4129;-0.71132;9.38;3.78;-8.05;1.00004;0;0;1;0;0.09474
1670524498622;7.0677;3.19017;-0.59875;7.56;2.38;-7.28;1.00004;0;0;1;0;0.18897
1670524498823;9.03162;4.38289;-0.7712;-5.18;4.76;-3.92;1.00003;0;0;1;0;0.24616
1670524499026;10.9141;5.36963;0.00479;-1.4;4.9;-0.77;1.00003;0;0;1;0;0.0786
1670524499238;9.24478;5.45825;-0.53888;5.88;-0.63;-15.12;1.00001;0;0;1;0;0.08956
1670524499430;10.34888;5.79834;-0.45266;-1.75;-3.5;-16.30999;1.00003;0;0;1;0;0.27098
1670524499635;8.43765;5.18043;-0.41673;-6.02;5.53;8.96;1.00004;0;0;0;1;0.20494
1670524499837;8.81607;4.92177;-0.28501;-2.1;-2.17;7.35;1.00006;0;0;0;1;0.10861
1670524500039;9.69504;5.30257;-0.39757;-2.03;-4.13;2.1;1.00006;0;0;0;1;0.20972
1670524500242;11.9272;6.31567;0.25387;-19.87999;-7.0;13.85999;1.00007;0;0;0;1;0.20486
1670524500443;9.41243;4.74214;-0.16047;-9.73;-1.89;5.32;1.00009;0;0;0;1;0.09163
1670524500647;7.89638;4.29188;0.11736;1.68;-8.82;7.07;1.0001;0;0;0;1;0.12872
1670524500869;6.60546;3.03688;-0.36165;3.71;-1.05;-5.32;1.00012;0;0;0;1;0.45492
1670524501056;8.34425;3.69073;-0.2898;-2.1;1.26;1.96;1.00012;0;0;0;1;0.31272
1670524501270;9.24238;4.35175;-0.35207;3.78;0.7;0.14;1.0001;0;0;1;0;0.14816
1670524501472;8.77296;3.90149;-0.21555;7.42;1.12;3.92;1.00009;0;0;1;0;0.17515
1670524501673;7.63532;3.56139;-0.64187;24.21999;-0.42;-14.0;1.00009;0;0;1;0;0.20993
1670524501874;6.95274;3.71468;-0.47182;4.69;-0.56;-4.97;1.00006;0;0;1;0;0.48083
1670524502078;10.02316;4.78764;-0.73767;-7.0;-3.01;6.86;1.00004;0;0;1;0;0.3139
1670524502277;10.79675;5.72649;-0.20597;2.24;-1.12;11.27;1.00005;0;0;1;0;0.10279
1670524502480;10.37523;4.5194;-0.4335;-3.85;6.72;-5.46;1.00003;0;0;1;0;0.15874
1670524502682;10.40396;4.62718;-0.37602;-7.77;2.38;-6.37;1.00005;0;0;1;0;0.0564
1670524502891;8.81128;4.43079;0.00719;-1.47;6.37;0.98;1.00006;0;0;0;1;0.07112
1670524503093;9.83395;4.6655;-0.10778;-1.54;-3.29;2.17;1.00005;0;0;0;1;0.11996
1670524503297;13.21811;6.03066;-0.20358;-7.84;5.04;12.18;1.00006;0;0;0;1;0.18556
1670524503497;9.77168;4.88105;-1.01549;10.85;-9.17;-8.75;1.00006;0;0;0;1;0.0294
1670524503699;8.6101;4.44037;-0.19639;-11.89999;-3.71;-0.07;1.00008;0;0;0;1;0.35763
1670524503900;7.25451;4.09309;0.47421;8.26;1.54;-1.54;1.0001;0;0;0;1;0.16378
1670524504101;7.08447;2.18905;-0.60833;-5.67;4.62;14.90999;1.0001;0;0;0;1;0.41036
1670524504302;9.55852;4.29427;-0.49098;-3.01;2.66;1.19;1.00008;0;0;0;1;0.07829
1670524504513;9.26633;4.01166;-0.29938;-1.68;0.42;1.61;1.00007;0;0;1;0;0.09334
1670524504717;9.09628;3.57816;-0.2898;4.34;1.26;2.1;1.00009;0;0;1;0;0.13168
1670524504918;6.92879;3.58534;-0.4814;19.03999;2.59;-13.23;1.00009;0;0;1;0;0.15319
1670524505122;7.6473;3.47757;-0.82868;-2.03;-0.07;-8.89;1.00007;0;0;1;0;0.42742
1670524505318;9.78366;4.77088;-0.44787;-12.18;10.08;4.34;1.00007;0;0;1;0;0.16687
1670524505520;10.47103;4.34457;-0.23711;-3.36;-1.82;-6.3;1.00004;0;0;1;0;0.03317
1670524505722;10.23871;4.77806;-0.33291;7.84;-5.18;-3.64;1.00003;0;0;1;0;0.11984
1670524505923;10.61712;5.27862;0.18202;-0.77;2.38;0.35;1.00004;0;0;1;0;0.26927
1670524506135;8.8017;4.57688;-0.01916;-1.47;1.12;1.82;1.00007;0;0;0;1;0.12967
1670524506340;8.9909;4.60083;-0.01437;2.24;-2.52;-1.96;1.00008;0;0;0;1;0.18288
1670524506542;11.47933;6.13125;-0.05269;-14.90999;0.63;7.14;1.00006;0;0;0;1;0.26875
1670524506743;10.72969;5.82229;0.09101;6.16;-3.43;-6.37;1.00005;0;0;0;1;0.06206
1670524506943;8.56938;4.15296;-0.1437;0.42;-9.1;9.24;1.00006;0;0;0;1;0.28767
1670524507146;6.90963;3.13748;-0.79036;4.48;-4.83;3.92;1.0001;0;0;0;1;0.34657
1670524507346;6.75156;2.95545;-0.7209;-4.2;0.56;6.72;1.0001;0;0;0;1;0.31482
1670524507548;9.38848;4.49306;-0.45266;-4.34;1.33;-3.22;1.00011;0;0;0;1;0.15557
1670524507763;9.08431;4.27511;-0.24669;-2.87;0.21;-0.14;1.00008;0;0;1;0;0.11382
1670524507965;9.30226;4.2823;-0.13652;-1.33;-0.35;0.98;1.00005;0;0;1;0;0.1474
1670524508167;8.05206;3.1279;0.07185;14.63;0.91;12.95;1.00005;0;0;1;0;0.16042
1670524508367;6.85215;2.65129;0.0479;3.36;4.69;-16.09999;1.00006;0;0;1;0;0.3029
1670524508566;8.6101;3.98531;-1.10889;1.61;2.17;-5.67;1.00005;0;0;1;0;0.22939
1670524508771;10.3872;4.92895;-0.36883;-6.09;3.99;10.78;1.00005;0;0;1;0;0.12024
1670524508971;10.483;4.67508;-0.29698;-1.33;1.82;-3.29;1.00003;0;0;1;0;0.06319
1670524509172;10.30098;4.82357;-0.13652;-2.1;-2.38;-6.02;1.00004;0;0;1;0;0.10023
1670524509374;9.37171;4.81159;-0.67779;1.26;0.49;-4.69;1.00002;0;0;1;0;0.16118
1670524509577;9.17772;3.9446;-0.06467;-0.07;3.71;-1.33;1.00002;0;0;0;1;0.15449
1670524509781;10.70095;5.22593;-0.32812;-8.26;3.5;0.56;1.00006;0;0;0;1;0.12483
1670524509982;11.60627;5.15408;-0.00958;-10.29;1.19;-10.08;1.00006;0;0;0;1;0.06411
1670524510183;9.19927;5.02475;-0.04072;6.79;-1.4;6.79;1.0001;0;0;0;1;0.06583
1670524510386;7.87961;3.53026;0.13412;5.53;-6.65;1.75;1.00013;0;0;0;1;0.28421
1670524510588;6.45218;1.99266;-0.50295;-7.63;-1.82;11.41;1.00011;0;0;0;1;0.42131
1670524510790;9.69264;4.06914;-0.40476;-2.17;0.77;-1.68;1.00011;0;0;0;1;0.15012
1670524510994;9.25915;4.16733;-0.22753;-4.83;0.98;0.14;1.0001;0;0;0;1;0.10947
1670524511212;9.39566;3.9446;-0.32812;-3.92;-0.28;0.49;1.00008;0;0;1;0;0.1186
1670524511416;9.32621;4.10267;-0.07904;-3.01;0.77;4.9;1.00005;0;0;1;0;0.11893
1670524511618;8.8975;3.46559;-0.07185;9.03;2.1;-1.82;1.00006;0;0;1;0;0.12966
1670524511818;7.11321;3.00096;0.13412;11.55;1.61;-15.39999;1.00007;0;0;1;0;0.20326
1670524512020;7.63532;4.02124;-0.65384;7.21;3.57;-14.13999;1.00006;0;0;1;0;0.38253
1670524512223;10.10459;4.4715;-0.2898;2.8;5.81;4.55;1.00007;0;0;1;0;0.2335
1670524512423;10.92129;4.82596;-0.32812;-4.76;9.59;1.4;1.00005;0;0;1;0;0.08821
1670524512646;10.80154;5.34329;0.00479;-2.52;1.05;-0.77;1.00003;0;0;1;0;0.03765
1670524512836;8.97653;4.62239;0.02156;-1.4;1.26;3.01;1.00003;0;0;0;1;0.11964
1670524513041;8.97414;4.5218;-0.10538;3.43;-1.75;-0.63;1.00003;0;0;0;1;0.17582
1670524513243;9.86509;4.77806;-0.25866;-5.88;2.8;5.6;1.00003;0;0;0;1;0.25322
1670524513448;10.76801;4.89063;0.15089;-5.53;3.29;4.9;1.00006;0;0;0;1;0.08807
1670524513652;9.78126;4.49545;0.18202;1.61;-3.22;3.78;1.00008;0;0;0;1;0.08037
1670524513846;9.58726;4.31583;-0.25148;0.77;2.1;6.23;1.0001;0;0;0;1;0.22729
1670524514048;9.44356;3.96376;0.50535;-10.64;-0.07;8.12;1.00013;0;0;0;1;0.12319
1670524514254;8.87355;3.57576;-0.06946;0.63;-12.11;-7.28;1.00014;0;0;0;1;0.11556
1670524514451;5.6259;2.87163;0.72569;-11.2;1.96;-5.39;1.00014;0;0;0;1;0.39641
1670524514653;9.53457;4.34217;0.13173;-3.85;-2.94;-0.63;1.00011;0;0;1;0;0.27054
1670524514855;9.40285;4.32062;-0.07185;3.01;1.82;1.4;1.00007;0;0;1;0;0.18739
1670524515069;9.18011;4.12662;0.01677;-2.8;-0.49;4.06;1.00007;0;0;1;0;0.16422
1670524515256;9.73336;3.88233;-0.0503;-4.62;-0.42;5.74;1.00009;0;0;1;0;0.15864
1670524515454;9.46272;3.83203;0.09341;2.38;-4.48;5.53;1.00006;0;0;1;0;0.11218
1670524515659;12.20023;3.06084;-0.50774;54.10998;-29.18999;31.42999;1.00003;0;0;1;0;0.23275
1670524515861;10.03753;3.04407;-0.5293;11.55;2.87;-15.95999;1.00001;0;0;1;0;0.88173
1670524516056;7.54192;3.70749;-0.89574;23.37999;6.3;-6.09;1.00002;0;0;1;0;0.12952
1670524516266;9.43638;3.49912;-1.4418;-24.70999;-12.80999;-15.88999;1.00001;0;0;1;0;0.29875
1670524516482;8.87834;3.33626;-0.12454;-3.78;-8.54;-13.85999;1.00004;0;0;1;0;0.07905
1670524516666;9.70222;4.53377;-0.08622;69.01997;10.99;2.31;1.00006;0;0;1;0;0.269
1670524516866;9.3789;4.31104;-0.09341;-16.09999;-9.66;-10.08;1.00007;0;0;1;0;0.69853
1670524517066;7.82213;4.25595;-0.13891;36.81998;-0.07;-21.48999;1.00011;0;0;1;0;0.18809
1670524517267;8.07361;4.51461;-0.96998;35.76999;2.52;18.26999;1.00011;0;0;1;0;0.72381
1670524517469;11.74278;4.40923;-0.97956;-29.60999;-7.14;0.63;1.0001;0;0;1;0;0.47284
1670524517666;7.24972;3.52786;-1.00112;5.25;-18.54999;5.04;1.00008;0;0;1;0;0.02426
1670524517875;8.95737;5.10618;-0.74485;15.25999;22.74999;17.07999;1.0001;0;0;1;0;0.59256
1670524518070;8.00655;4.20565;-0.77599;24.63999;-10.01;-24.49999;1.00007;0;0;1;0;0.04689
1670524518274;16.7819;3.92783;2.23934;-15.53999;-15.18999;27.15999;1.00011;0;0;1;0;0.70712
1670524518471;6.03066;2.71116;-0.88376;-6.3;20.64999;-4.41;1.00011;0;0;1;0;0.05927
1670524518672;9.62319;3.62366;-0.06467;2.94;-4.06;-17.56999;1.00015;0;0;1;0;0.03191
1670524518874;9.9537;3.76976;-0.62031;5.32;-3.85;21.55999;1.00014;0;0;1;0;0.23484
1670524519076;11.5871;2.51477;0.48619;-5.04;-14.63;-29.25999;1.00015;0;0;1;0;0.14442
1670524519279;9.63277;3.23567;-3.03928;-21.06999;15.67999;72.58997;1.00017;0;0;1;0;0.22836
1670524519481;4.19368;2.18186;-1.62622;21.62999;-20.01999;2.45;1.00018;0;0;1;0;0.00141
1670524519694;10.98356;5.29539;-0.0479;5.81;-2.17;-14.49;1.00018;0;0;1;0;0.8528
1670524519899;10.51174;3.69791;-0.30177;5.18;-13.85999;-1.61;1.00018;0;0;1;0;0.22137
1670524520099;9.35974;4.29667;-0.46942;-10.71;7.84;9.03;1.00014;0;0;1;0;0.32614
1670524520302;9.43638;4.21763;-0.32572;-12.18;-0.14;6.79;1.00015;0;0;1;0;0.04207
1670524520506;9.58008;3.63564;-0.17723;-19.24999;1.82;-0.84;1.00014;0;0;1;0;0.0806
1670524520701;9.46272;3.63085;-0.07664;1.61;-0.84;-2.73;1.00013;0;0;1;0;0.04606
1670524520915;9.51302;3.83203;-0.29219;6.58;1.96;2.45;1.0001;0;0;1;0;0.16482
1670524521114;9.26873;3.7051;-0.05509;7.35;-3.36;0.63;1.00009;0;0;1;0;0.14925
1670524521310;9.31184;3.82006;-0.20597;-2.38;7.0;1.96;1.0001;0;0;1;0;0.26185
1670524521514;9.36932;3.88472;-0.15807;-2.45;-0.84;-1.26;1.00007;0;0;1;0;0.0731
1670524521720;9.44835;3.70031;-0.17723;-6.3;-3.92;1.68;1.00008;0;0;1;0;0.14374
1670524521941;9.48428;3.58774;-0.17244;-0.56;-0.56;-0.07;1.00008;0;0;1;0;0.14031
1670524522136;9.44596;3.75779;-0.21316;-2.17;-0.91;1.54;1.00011;0;0;1;0;0.1361
1670524522337;8.78493;3.04886;-0.36644;4.34;-0.28;-7.77;1.00011;0;0;1;0;0.13291
1670524522539;7.71675;3.28836;-0.05269;35.97998;-2.24;5.67;1.0001;0;0;1;0;0.17509
1670524522740;7.90596;3.22609;-0.36165;9.52;-11.76;-19.17999;1.00014;0;0;1;0;0.66808
1670524522942;9.11305;4.77327;-0.88376;3.36;8.96;11.2;1.00011;0;0;1;0;0.55115
1670524523142;10.82309;4.6152;-0.18681;-9.31;12.39;12.67;1.00012;0;0;1;0;0.07414
1670524523349;10.20278;5.13971;-1.1065;-25.75999;6.72;15.81999;1.00012;0;0;1;0;0.02233
1670524523551;10.11177;4.12901;-0.83826;-12.95;-1.47;12.32;1.00013;0;0;1;0;0.01429
1670524523751;10.03034;3.95657;-0.65384;-7.28;0.07;0.07;1.00013;0;0;1;0;0.05172
1670524523951;9.40524;3.90628;-0.26585;-5.32;1.26;-3.78;1.00015;0;0;1;0;0.07071
1670524524155;9.48907;4.06674;-0.48619;0.56;-1.4;-2.73;1.00016;0;0;0;1;0.10363
1670524524359;11.12966;4.82357;-0.42392;-10.08;5.04;3.36;1.00017;0;0;0;1;0.15161
1670524524559;11.41466;4.5194;-0.11736;8.05;-0.98;-10.57;1.0002;0;0;0;1;0.0378
1670524524759;9.51062;3.92783;-0.70893;-8.47;-3.57;-1.12;1.00019;0;0;0;1;0.15837
1670524524959;7.92512;4.31104;0.18442;-16.02999;2.24;15.18999;1.0002;0;0;0;1;0.1041
1670524525162;7.82692;3.56139;-0.2395;5.39;-10.85;-0.28;1.00018;0;0;0;1;0.10638
1670524525365;7.81255;1.94236;-0.39518;-13.79;1.54;3.01;1.00017;0;0;0;1;0.47922
1670524525567;9.58726;3.80569;-0.71851;-8.68;1.68;0.56;1.00014;0;0;0;1;0.06281
1670524525768;9.32621;3.82724;-0.60354;1.82;2.17;2.03;1.00015;0;0;0;1;0.06202
1670524525974;9.62319;3.28118;-0.49098;0.21;0.84;2.38;1.00013;0;0;1;0;0.11029
1670524526175;9.45314;3.7985;-0.35207;2.8;-0.49;3.5;1.00011;0;0;1;0;0.09611
1670524526375;8.73224;2.72553;-0.36644;6.37;7.28;-3.15;1.0001;0;0;1;0;0.14955
1670524526579;6.21747;3.14945;-0.90532;24.28999;-7.07;8.26;1.00009;0;0;1;0;0.09635
1670524526782;9.40764;4.49306;-0.36883;-6.09;2.59;-19.24999;1.00007;0;0;1;0;0.64073
1670524526986;11.17037;4.2296;-0.0958;0;8.61;4.97;1.00006;0;0;1;0;0.11139
1670524527196;10.30816;4.31583;-0.36644;2.03;4.34;-7.84;1.00006;0;0;1;0;0.04441
1670524527389;10.91889;4.84752;-0.48858;1.05;1.75;-11.62;1.00006;0;0;1;0;0.09294
1670524527591;9.10826;4.2296;-0.2419;-1.19;-0.91;-0.91;1.00007;0;0;1;0;0.10057
1670524527794;9.41482;4.32301;-0.49577;-5.11;-1.82;0.07;1.00008;0;0;1;0;0.17093
1670524528012;9.17532;3.90867;-0.25148;-5.18;1.54;1.05;1.00009;0;0;0;1;0.12893
1670524528213;9.5681;4.1841;-0.22753;1.26;0;-4.97;1.00009;0;0;0;1;0.10596
1670524528417;11.08655;4.77327;0.0503;-13.79;5.18;6.3;1.00008;0;0;0;1;0.15939
1670524528615;10.8686;5.22114;0.45745;15.81999;-7.49;4.62;1.00011;0;0;0;1;0.03803
1670524528817;9.98484;4.77327;-0.17963;3.01;5.67;-4.06;1.00014;0;0;0;1;0.4574
1670524529019;8.15025;3.53505;0.06946;-2.59;1.47;5.18;1.00012;0;0;0;1;0.11292
1670524529221;6.75875;3.40332;-0.28501;-7.98;-4.13;-1.82;1.00013;0;0;0;1;0.16524
1670524529423;8.48316;3.74102;0.47661;11.76;7.7;14.13999;1.00015;0;0;0;1;0.25828
1670524529623;9.03401;3.57576;0.16286;0.35;2.31;0.42;1.0001;0;0;0;1;0.19863
1670524529826;9.5705;3.76737;-0.16047;-14.21;-2.73;3.99;1.00009;0;0;0;1;0.14803
1670524530027;9.62798;3.71947;-0.21795;1.19;-3.36;-1.54;1.00009;0;0;0;1;0.08627
1670524530232;9.52978;3.56379;-0.16047;-0.63;-0.49;-0.07;1.00008;0;0;0;1;0.17803
1670524530433;9.52499;3.67396;-0.16765;1.26;0.07;1.68;1.0001;0;0;0;1;0.13309
1670524530635;9.43159;3.81527;-0.18202;1.4;0.21;0.21;1.0001;0;0;0;1;0.13974
1670524530851;9.49865;3.67157;-0.20358;3.36;0.91;-0.98;1.00008;0;0;1;0;0.1483
1670524531053;9.31663;3.9422;-0.12933;3.29;-0.7;-0.07;1.00008;0;0;1;0;0.14532
1670524531253;8.43286;2.54112;-0.19879;12.11;-2.17;13.58;1.00008;0;0;1;0;0.18715
1670524531457;6.70126;2.71116;0.05269;-0.7;1.4;-10.85;1.00006;0;0;1;0;0.24887
1670524531657;9.71899;4.56491;-0.25148;7.07;12.32;-3.92;1.00004;0;0;1;0;0.25007
1670524531860;10.54527;4.70142;-0.09101;-4.48;12.6;-6.3;1.00004;0;0;1;0;0.07901
1670524532059;9.93694;5.35526;-0.05509;5.74;1.4;-2.73;1.00006;0;0;1;0;0.03853
1670524532259;9.87227;5.22114;-0.17005;-3.5;0.98;4.62;1.00008;0;0;1;0;0.21097
1670524532462;9.64474;5.15169;-0.00958;-9.1;2.45;-2.24;1.00008;0;0;1;0;0.13164
1670524532674;9.90101;5.0487;0.07664;-4.9;-5.39;5.88;1.00009;0;0;0;1;0.10869
1670524532871;9.3765;4.45953;0;-5.32;-0.28;0.42;1.00011;0;0;0;1;0.20975
1670524533078;9.36453;4.29427;0.37362;-6.58;7.42;-1.68;1.00009;0;0;0;1;0.1453
1670524533280;11.97031;6.04263;0.68737;-8.4;-1.26;-5.04;1.00012;0;0;0;1;0.08551
1670524533490;9.84114;4.87147;0.50535;8.89;-8.89;-9.17;1.00014;0;0;0;1;0.12651
1670524533691;8.97174;4.99841;-0.11975;-1.96;2.24;11.69;1.00014;0;0;0;1;0.50308
1670524533893;8.0329;3.96615;0.51253;-18.33999;2.59;18.82999;1.00014;0;0;0;1;0.15315
1670524534095;7.07728;3.70031;0.34488;1.47;-17.00999;-5.88;1.00013;0;0;0;1;0.09313
1670524534299;8.90468;3.84161;0.44787;-2.38;-9.59;5.67;1.00012;0;0;0;1;0.71198
1670524534499;9.26633;3.83203;0.29219;-2.31;0.07;-1.12;1.00015;0;0;1;0;0.35293
1670524534703;9.47949;4.05956;0.18442;10.57;0.07;8.12;1.00011;0;0;1;0;0.1654
1670524534901;9.38608;3.96136;0.13173;-2.17;-0.14;2.17;1.00006;0;0;1;0;0.24731
1670524535107;9.4723;3.88951;0.08862;12.18;0.77;-0.91;1.00004;0;0;1;0;0.15339
1670524535306;9.35495;3.77216;0.00479;1.75;0.77;-0.63;1.00007;0;0;1;0;0.24939
1670524535506;9.24478;3.44883;0.03114;11.97;-1.19;-1.26;1.00006;0;0;1;0;0.15888
1670524535709;7.3096;3.44883;-0.22753;-3.92;-0.35;-5.81;1.00007;0;0;1;0;0.26959
1670524535915;8.05685;3.29315;-0.09101;7.28;-6.51;-3.43;1.00006;0;0;1;0;0.21359
1670524536115;9.80521;3.93502;-0.20837;2.38;11.2;-8.75;1.00008;0;0;1;0;0.39479
1670524536318;9.79084;5.3385;0.02874;2.17;0.49;-5.46;1.00006;0;0;1;0;0.06169
1670524536519;10.82549;5.36005;-0.62989;2.8;-1.19;-0.28;1.00005;0;0;1;0;0.21299
1670524536722;9.36692;5.32652;-0.14849;1.33;0.56;-9.24;1.00006;0;0;1;0;0.13684
1670524536940;9.12742;5.06307;0.0024;-2.24;2.38;-2.03;1.00008;0;0;0;1;0.21984
1670524537158;8.98132;4.94572;-0.20597;-2.17;-0.84;-0.42;1.00008;0;0;0;1;0.16934
1670524537347;8.83523;4.87387;-0.12933;-2.59;-0.91;-0.84;1.00006;0;0;0;1;0.19903
1670524537550;8.89989;5.14211;-0.07185;-0.56;-0.07;-0.56;1.00004;0;0;0;1;0.2084
1670524537751;8.87355;4.85231;0.02635;-0.49;0.07;-2.45;1.00003;0;0;0;1;0.22547
1670524537951;8.82086;4.79483;-0.0503;-1.05;-2.45;2.73;1.00003;0;0;0;1;0.22368
1670524538154;8.8975;4.75172;0.00719;-4.27;0.14;0.56;1.00005;0;0;0;1;0.24493
1670524538357;8.95977;4.79483;0.03114;-4.76;1.61;1.05;1.0001;0;0;0;1;0.18036
1670524538555;9.30226;5.00559;0.00958;-11.13;3.71;4.41;1.00006;0;0;0;1;0.1578
1670524538757;9.00767;4.08351;0.74485;-22.81999;5.46;5.81;1.00009;0;0;0;1;0.09174
1670524538959;8.78254;4.40684;0.1437;34.85999;-16.86999;-38.98999;1.00014;0;0;0;1;0.05537
1670524539161;7.13955;5.85103;-0.0024;7.07;-8.19;2.45;1.00011;0;0;0;1;0.91605
1670524539360;9.15376;5.25707;0.4335;-19.31999;10.78;19.38999;1.00008;0;0;0;1;0.66472
1670524539571;9.0867;4.78764;0.16047;3.99;-6.23;-3.71;1.0001;0;0;0;1;0.0407
1670524539762;9.16574;5.50136;-0.5269;-2.1;2.38;5.32;1.00008;0;0;0;1;0.38723
1670524539963;8.44963;4.45713;0.673;6.44;0.35;-2.73;1.0001;0;0;0;1;0.14088
1670524540177;9.26394;5.4343;-0.10299;9.03;-7.14;2.87;1.00008;0;0;0;1;0.36479
1670524540373;8.60531;4.13141;0.46942;-8.05;13.79;-5.25;1.00007;0;0;0;1;0.44988