Time;Ax;Ay;Az;Gx;Gy;Gz;BAR;P;R;Mag;UP;DOWN
0;9.22379;3.05962;0.12397;0.51117;-2.25067;0.7019;992.16357;-18.34967;89.23;0.98724;0;0
1;9.17947;2.79313;-0.25272;-0.95367;1.96075;5.27954;992.16168;-16.91789;88.42297;0.97367;0;0
2;8.44765;2.4877;-0.44915;-6.32476;11.17705;6.62231;992.16187;-16.38699;86.95651;0.94906;0;0
3;6.54864;1.69121;-0.1072;-0.95367;34.24833;3.13568;992.15485;-14.47858;89.06219;0.98415;0;0
4;5.08021;0.88573;0.85938;7.22503;32.60037;-7.54546;992.15295;-9.75418;80.39864;0.83562;0;0
5;6.19291;1.94752;1.40615;-6.69097;29.97587;0.02289;992.17377;-17.04922;77.20747;0.78831;0;0
6;9.09563;2.62904;2.45357;-9.25445;23.56718;14.42717;992.21478;-15.59276;74.90365;0.74914;0;0
7;10.85511;2.66377;3.88127;-5.77545;40.22976;7.59124;992.2052;-13.01083;70.32535;0.67196;0;0
8;10.60419;2.82068;4.27473;-12.00103;27.65653;-2.72369;992.18567;-13.85844;68.04478;0.637;0;0
9;10.13826;2.9129;4.89815;-3.0899;8.3084;-2.47955;992.19586;-14.50476;64.21317;0.57884;0;0
10;10.07538;2.81648;4.46817;-3.45611;6.41632;-0.70953;992.20648;-14.33459;66.08398;0.60722;0;0
11;9.86877;2.75839;5.18861;-15.66313;6.66046;-7.05718;992.19928;-13.89583;62.2664;0.54826;0;0
12;9.65917;2.5949;4.83168;33.34805;3.24249;0.5722;992.25854;-13.51003;63.425;0.56501;0;1
13;8.6351;2.50747;4.32144;8.20159;-3.41034;-0.8316;992.25409;-14.55692;63.41429;0.56683;0;0
14;8.85249;2.42961;4.21125;6.73675;12.76397;-5.1651;992.22815;-13.91975;64.55893;0.58303;0;0
15;10.5413;3.58663;5.08021;-1.01471;4.40216;-1.25885;992.2135;-17.0407;64.269;0.58491;0;0
16;11.90673;3.71;5.6156;-13.46587;3.66974;1.12152;992.2392;-15.73877;64.74991;0.58942;0;0
17;11.45039;3.82079;5.98151;5.0888;4.21905;-7.78961;992.23413;-16.47606;62.41811;0.556;0;0
18;10.11251;3.61717;5.43893;1.24359;-3.41034;-6.14166;992.229;-17.48544;61.72677;0.54821;0;0
19;9.29506;3.42074;4.91432;2.89154;-19.70671;-2.78473;992.20416;-18.02203;62.13446;0.55553;0;0
20;8.83932;2.99495;4.23042;5.21087;-24.95573;0.75531;992.19861;-16.99435;64.42465;0.58715;0;0
21;8.01228;2.4919;3.8699;3.25775;-23.79606;-6.32476;992.16254;-15.64514;64.21965;0.58119;0;0
22;6.36239;2.04035;2.93266;13.81682;-29.47232;-12.00103;992.18842;-16.23763;65.25325;0.59809;0;0
23;5.72759;1.98765;1.45765;11.31438;-30.44889;-13.3438;992.1604;-18.58832;75.72157;0.76623;0;0
24;5.65812;2.10802;1.30194;19.49309;-25.32194;-6.26373;992.16254;-19.95483;77.04171;0.78922;0;0
25;8.29434;2.76738;1.50496;6.91986;-20.74431;-8.27789;992.16211;-18.17429;79.71591;0.83038;0;0
26;8.69319;2.83505;0.51563;16.92961;-8.11004;2.15912;992.25708;-18.0327;86.60555;0.9437;1;0
27;8.99203;3.58603;0.83722;-4.79888;-4.20379;-3.70025;992.1181;-21.65723;84.6807;0.91384;0;0
28;8.80099;3.98727;0.29225;-0.95367;-0.41962;-5.83648;992.13831;-24.36096;88.09811;0.96977;0;0
29;8.9549;3.93457;0.21739;2.89154;-2.06756;-5.22613;992.15021;-23.71335;88.60935;0.97778;0;0
30;8.93094;4.17412;-0.28806;-14.68657;-1.76239;-0.70953;992.13489;-25.03891;88.15263;0.97079;0;0
31;7.78471;3.61298;0.02635;-4.49371;0.06866;8.81194;992.16528;-24.89648;89.80606;0.99693;0;0
32;6.1971;2.50148;0.10241;-7.97271;13.00811;9.84954;992.1825;-21.9789;89.05328;0.98468;0;0
33;4.9251;1.77325;1.27739;-4.85992;33.33279;9.97161;992.1897;-19.21408;75.45998;0.76293;0;0
34;5.30179;1.44687;1.54928;-8.94927;30.95243;4.47845;992.17529;-14.67865;73.71072;0.72867;0;0
35;8.02785;2.85242;2.1182;-17.55522;44.50222;13.75579;992.17273;-18.96053;75.21899;0.75872;0;0
36;10.37063;3.72317;3.85253;-32.814;48.65261;4.29535;992.21375;-18.60016;69.62074;0.66996;0;0
37;10.4916;3.50997;5.86832;-9.07134;25.3372;5.21087;992.24072;-16.27678;60.78017;0.5314;0;0
38;10.17779;3.37703;5.93839;-10.29204;8.00323;1.24359;992.22693;-15.99168;59.73791;0.51555;0;0
39;10.12569;3.11831;5.59165;-0.52643;11.42119;-11.69585;992.23669;-15.08749;61.09147;0.53325;0;0
40;9.06868;3.35786;8.03923;-19.63042;13.06914;-7.91168;992.24878;-15.48668;48.44358;0.36073;0;0
41;9.88434;3.30277;5.60302;34.01944;5.13458;8.3847;992.22968;-16.20842;60.4529;0.52646;0;1
42;10.43051;3.43452;6.03421;-17.12798;12.58086;-4.73785;992.26984;-15.90848;59.94996;0.51842;0;0
43;9.81308;3.9196;6.46659;20.22551;-10.91765;-2.05231;992.28937;-18.44466;56.61603;0.47802;0;0
44;10.66707;4.13819;6.14261;8.14056;-29.10612;7.77435;992.24561;-18.58188;60.06461;0.52699;0;0
45;10.91739;3.89684;5.30958;15.28166;-15.55632;6.06536;992.24731;-17.79614;64.06444;0.58357;0;0
46;10.55867;3.7603;5.25089;10.39886;-13.29802;6.06536;992.28638;-17.68639;63.55857;0.57576;0;0
47;10.93895;3.604;4.95804;3.50189;-26.48161;5.02777;992.23669;-16.70346;65.61776;0.6046;0;0
48;10.20654;3.21234;4.4478;17.47893;-49.06459;-2.54059;992.24072;-16.09428;66.45338;0.61616;0;0
49;7.05109;2.41344;2.13856;25.53556;-65.05579;1.6098;992.19373;-18.13599;73.12769;0.72418;0;0
50;5.56709;1.4307;0.2647;8.32366;-50.95668;-1.38092;992.1264;-14.39709;87.27779;0.954;0;0
51;5.07841;1.30613;0.13295;11.25335;-32.2189;-7.91168;992.16125;-14.41876;88.50038;0.97465;0;0
52;5.3497;1.95711;-0.48868;9.48333;-19.95085;-8.27789;992.14252;-20.01758;84.7807;0.91453;0;0
53;7.66433;2.99914;-2.47513;2.58636;-12.80974;0.02289;992.14124;-20.42407;72.1026;0.71201;0;0
54;8.75847;3.35307;-0.98275;16.50237;-3.47137;4.96673;992.18164;-20.82933;83.5979;0.89578;0;0
55;9.30943;3.50758;-1.31512;-10.0479;-3.04413;1.18256;992.10638;-20.45918;81.95918;0.86894;1;0
56;9.00401;3.45368;-1.35884;-2.96783;4.21905;2.03705;992.11664;-20.77058;81.41799;0.86047;0;0
57;9.01598;3.19497;-1.36303;-5.10406;-1.76239;1.5564;992.15656;-19.30974;81.40318;0.85893;0;0
58;9.56994;3.60699;-1.83673;-12.00103;-5.30242;-0.7019;992.14575;-20.31218;79.13549;0.82323;0;0
59;8.75308;3.34948;-1.378;1.4267;-7.98797;-1.80054;992.19861;-20.70695;81.05334;0.85453;0;0
60;4.62627;1.72235;-1.53909;-13.09966;5.80596;7.11059;992.17188;-19.45634;71.59843;0.70235;0;0
61;3.59022;0.88812;-0.52461;3.19671;39.74148;15.83861;992.18481;-13.75406;81.68668;0.85956;0;0
62;5.11794;1.28458;0.65696;-24.75736;57.86891;10.52856;992.15485;-13.97971;82.68528;0.87645;0;0
63;8.22787;2.5943;1.905;-11.75689;60.73756;18.21898;992.20605;-17.07596;76.96397;0.78438;0;0
64;11.42823;2.93686;3.21713;-26.22221;60.92066;7.59887;992.21582;-13.89423;74.27771;0.73695;0;0
65;11.71928;2.98776;4.94127;-9.8648;26.19169;3.87573;992.20245;-13.22002;67.13795;0.62178;0;0
66;11.19707;2.58113;4.91432;-13.46587;18.86748;-0.09155;992.25391;-11.91919;66.30362;0.60677;0;0
67;11.55579;2.7542;5.22574;0.93841;21.61406;-11.9934;992.21246;-12.25247;65.66666;0.59734;0;0
68;10.82397;2.88775;5.53715;-4.92096;6.47735;-8.45336;992.24219;-13.36116;62.90737;0.5569;0;0
69;10.62095;3.20395;5.05805;-75.53857;65.74243;2.47192;992.23431;-15.23529;64.53465;0.58515;0;0
70;9.46394;2.31643;6.57858;40.18399;-8.65936;-0.45776;992.27448;-11.36378;55.19602;0.44042;0;0
71;8.24344;2.52723;3.94296;-10.16997;-3.65448;-10.04027;992.24579;-15.45963;64.43753;0.58412;0;1
72;7.41401;2.55538;4.30468;18.39445;-2.43377;-8.57543;992.19861;-16.59773;59.85995;0.51881;0;0
73;10.03706;3.51357;4.41666;2.6474;-10.67351;-7.72094;992.2605;-17.76601;66.24879;0.61644;0;0
74;12.38702;3.99147;5.49822;13.02337;7.45391;-2.59399;992.27026;-16.41077;66.06502;0.61083;0;0
75;12.43553;4.92091;6.01505;5.45501;6.23321;-8.14819;992.28766;-19.60741;64.18702;0.58981;0;0
76;10.45866;4.38852;5.47487;10.8261;-19.46257;6.07299;992.27173;-20.39267;62.36898;0.56529;0;0
77;9.66576;3.4968;4.65382;9.54436;-27.45817;3.14331;992.24792;-18.05379;64.29037;0.58755;0;0
78;8.66564;2.83744;3.56866;12.84026;-33.86686;-4.73022;992.17847;-16.84459;67.61727;0.63555;0;0
79;6.70734;2.3829;2.12479;18.15031;-32.46305;-7.6599;992.15997;-18.71022;72.42255;0.71396;0;0
80;5.35629;1.88824;1.08455;10.52093;-30.69303;-9.55199;992.15912;-19.06081;78.55339;0.81243;0;0
81;5.0305;1.98765;0.71685;10.21575;-27.5192;-13.94652;992.14362;-21.36382;81.88995;0.86862;0;0
82;6.04559;2.79972;0.12816;8.44573;-17.81462;-9.00268;992.16315;-24.84398;88.78559;0.98077;0;0
83;8.32668;3.94535;-0.54018;1.06049;-5.85174;-1.86157;992.13214;-25.30603;86.28822;0.94147;0;0
84;8.69139;4.03578;-1.43669;-24.26908;-13.54216;12.96996;992.13934;-24.61372;80.61388;0.85173;0;0
85;9.15851;3.74533;-0.29943;29.2587;-11.65007;4.85229;992.12958;-22.23116;88.1274;0.96975;0;0
86;8.56324;3.82977;0.3162;-8.88824;1.89972;-6.19506;992.05646;-24.08127;87.88528;0.96631;0;0
87;9.07407;4.2364;0.28267;8.07952;-2.92206;0.7019;992.13342;-25.01576;88.21576;0.97178;0;0
88;8.88842;4.03818;0.22458;0.87738;-4.3869;1.12915;992.12299;-24.42632;88.55267;0.977;0;0
89;8.8483;3.93996;0.04012;-1.19781;-4.63104;-2.16675;992.11786;-24.0022;89.74018;0.99586;0;0
90;9.00341;4.18969;-0.08324;-2.17438;-0.48065;0.15259;992.1145;-24.95375;89.47028;0.99162;0;0
91;8.93693;4.18969;0.29704;0.08392;-2.25067;2.9602;992.15253;-25.10533;88.09634;0.96992;0;0
92;8.93454;4.12442;0.1084;-3.15094;-1.33514;-1.06811;992.13214;-24.77768;89.30492;0.98899;0;0
93;8.79919;4.1322;-0.08264;-0.40436;1.83868;-1.92261;992.13446;-25.15431;89.46188;0.9915;0;0
94;8.78482;3.91541;-0.22637;-3.39508;6.0501;-0.15259;992.12616;-24.01555;88.52389;0.97647;0;0
95;8.62971;3.78965;-0.19044;-6.14166;15.26641;1.98364;992.16443;-23.70303;88.7358;0.9798;0;0
96;8.47161;4.07231;0.76416;-1.62506;12.6419;3.63159;992.1438;-25.58311;84.84574;0.91897;0;0
97;9.24595;3.8651;1.72534;-5.71441;12.09258;10.65063;992.15613;-22.33966;79.42987;0.83033;0;0
98;10.35446;4.26874;2.34158;-4.85992;11.11602;-2.9602;992.15356;-21.90544;77.25733;0.79535;0;0
99;9.52802;4.07651;1.47262;4.29535;-6.58416;-6.19506;992.12976;-22.9198;81.21407;0.85932;0;0
100;8.35244;3.58603;0.22517;-5.77545;-5.42449;-8.39233;992.10919;-23.22823;88.45573;0.97524;0;0
101;6.466;3.177;0.50664;35.17911;-0.17548;-2.59399;992.23541;-26.09741;85.51974;0.92985;0;0
102;2.95243;1.28458;0.07067;-4.43267;18.19609;-5.88989;992.10809;-23.50743;88.62888;0.97806;0;1
103;3.11532;1.29116;0.71565;11.00921;12.33672;-2.28882;992.17291;-21.99551;77.06251;0.79241;0;0
104;6.77561;3.67407;0.12516;-13.3438;31.44071;7.84301;992.13635;-28.4646;88.94171;0.98376;0;0
105;9.83883;4.65022;3.64053;-15.41899;47.37087;16.44896;992.17249;-23.9062;69.69469;0.68275;0;0
106;10.93895;4.30887;5.04308;-27.62601;33.39383;4.79126;992.21375;-19.68298;65.24933;0.60579;0;0
107;10.50777;4.77;5.31736;-19.99663;28.87723;-6.50024;992.2135;-22.04999;63.15871;0.58151;0;0
108;10.46165;4.56638;6.58278;-9.13238;22.22441;5.09643;992.24921;-20.27609;57.82071;0.50043;0;0
109;9.74361;4.20826;5.54673;-12.73345;13.55742;-1.19018;992.20801;-20.57323;60.3485;0.53683;0;0
110;11.57435;5.22095;6.79478;-11.93999;18.3792;1.12915;992.23309;-21.25607;59.58475;0.52818;0;0
111;11.99536;5.07123;8.30393;15.95305;-4.57;2.28882;992.24329;-19.16757;55.30663;0.46237;0;0
112;10.42572;4.64364;6.96485;12.96233;-10.3073;-1.61743;992.24329;-20.32266;56.25528;0.47908;0;0
113;9.20163;4.33582;6.19291;17.17375;-12.80974;-1.19018;992.23541;-21.35114;56.05854;0.47998;0;0
114;8.98005;4.15496;5.98331;13.45061;-22.8195;5.27954;992.22479;-21.05902;56.32492;0.48255;0;0
115;8.54407;3.41895;4.55021;12.10784;-31.24234;1.25122;992.16571;-19.45276;61.96212;0.55678;0;0
116;7.08642;3.00393;3.40398;16.13616;-39.60415;-11.38305;992.16272;-20.91199;64.34262;0.59553;0;0
117;5.16824;2.25055;1.83254;11.07024;-26.96989;-12.23754;992.15973;-22.31429;70.47666;0.69084;0;0
118;4.51428;2.31164;1.27619;13.45061;-26.48161;-4.1809;992.15424;-26.23224;74.21435;0.75598;0;0
119;5.88749;2.84104;0.85578;11.92473;-28.06852;-4.42505;992.12109;-25.52618;81.72961;0.8702;0;0
120;9.36991;4.04177;0.65337;-17.8604;-12.5656;-7.04955;992.12598;-23.28276;86.01121;0.9361;0;0
121;8.03084;4.54362;0.38507;33.16495;-11.89422;6.4392;992.20312;-29.47177;87.25481;0.9583;1;0
122;8.55246;4.4526;1.34446;1.85394;-4.26483;-1.49536;992.16168;-27.21703;81.06611;0.8619;0;0
123;8.81596;4.49152;0.50724;0.20599;-8.78143;0.88501;992.14337;-26.95949;86.70701;0.9488;0;0
124;8.61055;4.37414;0.56893;1.36566;-5.30242;0.76294;992.13318;-26.88013;86.21978;0.94119;0;0
125;8.4249;4.12561;0.12397;0.26703;-1.88446;-2.65503;992.12;-26.08821;89.157;0.98679;0;0
126;8.87704;4.49871;-0.32698;-5.65338;5.19561;-3.20434;992.12976;-26.85933;87.89049;0.96716;0;0
127;8.24703;4.44241;-0.02455;-13.28276;10.20049;-1.92261;992.12469;-28.30983;89.82941;0.99738;0;0
128;6.77621;3.90104;-0.08564;-17.73833;23.68925;4.91333;992.14996;-29.92688;89.27593;0.98905;0;0
129;4.6634;2.50028;1.09952;-21.64457;49.5071;6.86645;992.12976;-27.55742;76.73323;0.79655;0;0
130;5.11375;2.31703;2.42961;-17.92143;53.65749;4.85229;992.14996;-22.25706;64.58694;0.60283;0;0
131;5.48325;2.90033;3.88906;-16.94487;37.8494;6.13403;992.17847;-23.33736;54.65339;0.46881;0;0
132;7.54037;3.84235;3.66987;-20.97319;31.44071;18.28001;992.17529;-24.61658;64.04796;0.60215;0;0
133;8.82434;4.0783;5.83598;-14.93071;32.35624;7.4768;992.21667;-21.08104;56.52132;0.48529;0;0
134;9.17049;3.45368;6.77322;-7.54546;17.95195;8.5144;992.19354;-16.85355;53.55087;0.43141;0;0
135;9.21301;3.39799;6.90497;-9.01031;10.3836;5.34057;992.22369;-16.44308;53.14917;0.42479;0;0
136;8.92795;3.61717;7.5757;4.11224;7.63702;-1.25122;992.22626;-17.16716;49.68414;0.38182;0;0
137;8.83333;3.67826;7.37508;-0.46539;11.6043;-8.14819;992.26428;-17.72615;50.14098;0.38953;0;0
138;10.30715;3.92379;8.51353;-21.3394;13.8626;-0.7019;992.24158;-16.35748;50.44386;0.38894;0;0
139;8.88842;3.88247;6.99779;8.26263;6.17217;-10.9558;992.30847;-18.94229;51.7869;0.41491;0;1
140;8.04342;3.73395;6.49534;8.87298;-19.46257;1.92261;992.23901;-19.85806;51.07792;0.4091;0;0
141;9.4855;4.39031;7.30861;10.58196;-15.25115;-4.1809;992.22308;-20.13477;52.38564;0.42696;0;0
142;9.56874;4.53823;7.28225;9.36126;-10.91765;0.21362;992.24414;-20.67706;52.72718;0.4334;0;0
143;9.25134;4.33821;6.5684;4.41742;-9.45281;2.34985;992.24414;-20.9247;54.62545;0.45926;0;0
144;8.9549;4.39151;6.6762;13.45061;-21.96501;4.36401;992.22308;-21.46294;53.29415;0.44374;0;0
145;8.96268;3.96452;6.05517;20.16447;-36.49136;4.05883;992.21332;-20.1293;55.95712;0.47438;0;0
146;7.77273;3.59202;4.50829;22.66691;-46.13491;-1.7395;992.17145;-21.78932;59.88567;0.53412;0;0
147;6.21926;2.53741;2.29487;11.98577;-46.37905;-6.92748;992.15106;-20.94513;69.74625;0.6767;0;0
148;5.16944;2.38709;1.6936;18.94377;-32.52408;-7.29369;992.14825;-23.69284;71.86026;0.71491;0;0
149;4.54063;2.17809;0.93543;20.34758;-41.31314;-5.34057;992.13806;-25.16519;78.35912;0.81737;0;0
150;7.03372;3.52914;-0.76655;7.28607;-34.78238;-2.89917;992.14575;-26.50966;83.7803;0.90305;0;0
151;8.52132;4.54602;-0.38028;-1.31988;-9.81902;0.64087;992.13507;-28.05573;87.44475;0.96066;0;0
152;8.01827;4.24599;1.20373;10.88714;-5.24139;4.11987;992.18103;-27.63976;81.46233;0.86848;0;0
153;9.19564;4.10046;-0.94562;-0.09918;-9.02557;-1.49536;992.0658;-23.92084;84.12875;0.90649;1;0
154;8.4237;4.27653;-0.01976;3.13568;-0.96893;-3.69262;992.11536;-26.91585;89.86558;0.99791;0;0
155;7.9458;3.92319;-0.57432;-3.57818;2.08282;-2.65503;992.11786;-26.21838;85.8659;0.93533;0;0
156;8.2632;4.04177;-0.93124;-18.71489;17.70781;0.57983;992.11896;-25.92216;83.57004;0.89928;0;0
157;9.90111;4.96523;-0.22997;-12.97759;18.44023;-3.08227;992.13763;-26.62674;88.66947;0.97924;0;0
158;7.86975;4.32324;-0.17786;-11.93999;21.06474;4.11987;992.15912;-28.77599;88.70528;0.9802;0;0
159;3.75791;2.07149;-0.30482;-24.51322;36.75076;7.53784;992.16125;-28.78574;85.36257;0.92914;0;0
160;2.61167;0.77673;2.15354;-10.23101;62.69068;13.64135;992.18677;-12.9234;50.49164;0.37992;0;0
161;6.21327;2.98956;3.16383;-14.44243;50.42263;2.22778;992.18994;-23.20816;63.01459;0.58296;0;0
162;9.92147;4.21904;4.44421;-17.12798;37.72733;6.19506;992.18695;-21.21059;65.87055;0.61889;0;0
163;9.35075;4.10046;6.56481;-25.12358;25.21513;5.27954;992.22327;-19.74301;54.92876;0.45918;0;0
164;10.08676;4.27473;6.81933;-10.53619;12.45879;6.86645;992.2027;-19.34561;55.93866;0.47154;0;0
165;9.59689;3.7621;7.29663;-5.1651;7.27081;-4.36401;992.23309;-17.33098;52.75384;0.42224;0;0
166;9.15133;3.75012;6.74746;5.51605;7.75909;-3.87573;992.22327;-18.25403;53.59787;0.43642;0;0
167;8.64947;3.59202;7.50384;27.42765;-1.76239;2.04468;992.27515;-17.4162;49.05678;0.37473;0;0
168;9.92207;3.93936;6.39353;-22.377;12.09258;-0.27466;992.22076;-18.45607;57.20329;0.4862;0;1
169;8.85069;4.10166;6.80615;10.94817;-3.10516;-2.04468;992.25922;-20.1716;52.43984;0.4278;0;0
170;7.55893;3.71419;5.44492;-0.8316;-16.8991;-0.64087;992.22607;-21.737;54.23368;0.45708;0;0
171;7.52899;3.83576;5.1916;10.52093;-14.27458;-4.97436;992.25177;-22.75412;55.41186;0.47651;0;0
172;11.39649;5.54733;7.30861;-0.22125;3.4256;1.86157;992.25153;-22.28085;57.32782;0.50047;0;0
173;10.94734;5.11554;7.58109;15.46477;-16.59392;0.94604;992.26471;-21.01497;55.29719;0.46855;0;0
174;9.30763;4.45679;6.02223;11.43645;-27.58024;2.34985;992.25031;-21.90109;57.09629;0.49598;0;0
175;8.66624;3.9711;5.46768;9.30022;-30.08268;6.01196;992.21289;-21.18341;57.75148;0.50246;0;0
176;8.71176;3.53752;4.16274;17.47893;-35.5148;1.37329;992.21503;-20.12207;64.46011;0.59518;0;0
177;6.76723;2.58592;2.35356;16.68547;-45.64663;-5.88989;992.19373;-19.84549;70.82296;0.69102;0;0
178;4.75323;1.99903;1.47022;21.26311;-37.04068;-8.39233;992.15845;-21.88933;72.8126;0.72581;0;0
179;4.56878;2.09724;0.67133;16.62444;-25.93229;-9.49096;992.15253;-24.4257;81.64082;0.86763;0;0
180;6.39533;3.40338;1.71636;7.65228;-18.73015;-6.98852;992.13977;-27.20215;74.97713;0.76946;0;0
181;8.14163;4.14358;-0.65097;6.91986;-14.09148;-2.7771;992.18634;-26.89951;85.4286;0.92892;1;0
182;8.12906;4.558;0.13834;8.99505;-9.26971;-0.7019;992.14233;-29.276;89.02505;0.98516;0;0
183;8.88363;4.49691;-0.6348;-1.31988;-1.94549;-2.59399;992.099;-26.78987;85.91273;0.93637;0;0
184;7.76854;4.05614;0.45993;-6.81304;-0.05341;2.47192;992.11853;-27.52907;86.61179;0.94759;0;0
185;8.6878;4.53404;-0.46113;-10.53619;6.23321;2.16675;992.15192;-27.52638;86.96172;0.953;0;0
186;9.42321;4.81192;-0.60546;-9.80376;4.21905;1.67847;992.15167;-27.00313;86.3237;0.94287;0;0
187;7.19362;4.11843;-0.48269;-17.37212;2.87628;9.18578;992.15698;-29.73615;86.16123;0.94187;0;0
188;3.80941;1.9619;-0.13714;-20.48491;20.8206;14.06859;992.16974;-27.23398;87.93821;0.96801;0;0
189;2.92608;1.09054;1.36722;-15.11382;43.22049;16.08275;992.15466;-18.65758;64.95551;0.59892;0;0
190;6.50492;2.86379;2.19306;-10.65825;46.69949;5.2185;992.16418;-22.6449;71.36905;0.70516;0;0
191;9.17588;3.49261;2.97878;-25.42875;56.58717;6.4392;992.18951;-19.90179;72.01495;0.70967;0;0
192;9.63102;4.35857;5.96534;-17.12798;52.80299;-3.75366;992.20502;-21.04341;58.22642;0.50855;0;0
193;9.88554;4.2364;6.35341;-16.27348;21.55302;5.76782;992.24115;-19.82471;57.27127;0.49138;0;0
194;9.45915;3.82438;5.78209;-21.27836;2.388;6.80541;992.24835;-19.03249;58.56383;0.50696;0;0
195;8.92795;4.0262;6.89;26.14591;5.867;-0.82397;992.22284;-19.64729;52.34144;0.42462;0;1
196;9.81188;3.95014;6.50492;-7.48443;14.47295;-1.61743;992.26874;-18.54895;56.45706;0.47614;0;0
197;10.82457;4.42744;7.29603;-9.07134;15.32744;-4.66919;992.26874;-18.73526;56.01905;0.4707;0;0
198;9.12977;4.41786;6.87922;6.49261;-7.80486;-3.02124;992.28174;-21.12993;53.00223;0.43868;0;0
199;9.93225;4.84186;7.89909;3.62396;-9.63592;-3.38745;992.263;-20.88377;51.50488;0.41844;0;0
200;10.28678;4.77119;7.311;15.46477;-12.26043;-3.87573;992.2713;-20.70966;54.59791;0.45812;0;0
201;9.56934;4.77359;7.18224;21.81242;-25.2609;-0.57983;992.26788;-21.75046;53.11003;0.44246;0;0
202;8.99442;4.42804;5.96414;17.7841;-42.47281;3.44848;992.24518;-22.30844;56.4519;0.48873;0;0
203;7.91346;3.6034;4.23341;23.5214;-43.38833;-0.21362;992.26239;-21.87584;61.85487;0.56226;0;0
204;6.36;2.76977;2.58173;21.75138;-39.36001;-5.88989;992.22076;-21.97507;67.90618;0.6512;0;0
205;5.06105;2.51525;1.43429;15.03752;-34.78238;-7.59887;992.14404;-25.55489;74.17736;0.75401;0;0
206;5.27365;2.70689;0.71505;16.74651;-30.20475;-9.12475;992.18695;-26.95935;82.27839;0.88024;0;0
207;5.8288;3.2321;0.20781;16.3803;-24.28434;-3.14331;992.19482;-28.99316;87.95816;0.96884;0;0
208;7.38406;3.8699;-0.35753;29.44181;-26.78678;0.21362;992.16339;-27.63091;87.22799;0.95715;0;0
209;8.59857;4.83587;-0.15211;-4.37164;-6.46209;0.5188;992.16827;-29.34975;88.98651;0.98458;1;0
210;8.91118;4.48913;-0.11319;1.91498;-3.1662;1.5564;992.14783;-26.73544;89.27229;0.98866;0;0
211;8.23865;4.36875;-0.11199;-9.8648;-4.81414;0.45776;992.15271;-27.93372;89.22122;0.98799;0;0
212;8.36501;4.42565;-0.64319;-0.8316;3.12042;-0.27466;992.13214;-27.81207;85.60318;0.93219;0;0
213;8.72254;4.65142;-0.44017;-11.32964;7.39288;-1.49536;992.15192;-28.03918;87.11111;0.95552;0;0
214;8.43448;4.88318;-0.72463;-4.98199;3.85284;3.02124;992.17035;-29.97763;85.0896;0.92585;0;0
215;5.51499;3.389;-0.81267;-10.9024;18.13506;12.48168;992.20099;-31.2972;81.61745;0.87543;0;0
216;3.39799;1.40794;0.98215;-9.62066;45.35671;17.9138;992.20056;-21.70515;73.87872;0.74202;0;0
217;5.29161;1.9056;2.09724;-17.49419;47.4319;3.87573;992.22119;-18.50964;68.37994;0.65061;0;0
218;8.12666;3.6022;2.09604;-6.75201;35.40799;8.45336;992.16992;-23.22952;75.53737;0.7705;0;0
219;9.20463;4.08369;4.00225;-30.12845;35.34695;2.83813;992.27002;-22.13945;66.50021;0.63065;0;0
220;10.0658;4.05674;5.24849;-17.92143;28.32792;0.88501;992.24646;-19.66489;62.46164;0.56462;0;0
221;10.1736;4.01662;5.8809;-13.64898;15.81572;-0.57983;992.26685;-18.87091;59.96972;0.52644;0;0
222;9.87117;3.98488;6.31508;-14.25933;15.93779;-5.64575;992.23962;-18.78081;57.39092;0.48979;0;0
223;10.14365;4.88737;6.42587;-25.55082;19.53886;-7.41577;992.26453;-22.14726;57.64628;0.50434;0;0
224;9.88734;4.32025;7.04151;10.15472;11.6043;1.49536;992.28748;-19.59134;54.5425;0.45348;0;1
225;9.47112;4.48493;6.71572;-1.62506;10.5667;-4.73022;992.22034;-21.12073;54.66055;0.46044;0;0
226;8.37879;4.21125;5.7749;4.96673;-6.95037;-2.16675;992.26874;-22.48155;55.42427;0.47563;0;0
227;10.51016;5.04308;6.90437;9.72747;-6.95037;-0.15259;992.2998;-21.85257;56.69817;0.4904;0;0
228;10.25445;4.64603;6.32346;15.22063;-11.3449;-3.69262;992.29236;-21.08893;58.33969;0.51027;0;0
229;9.24774;4.49991;5.71861;9.54436;-15.98357;-5.64575;992.27386;-22.48264;58.26825;0.51403;0;0
230;8.92076;5.30239;6.03301;16.68547;-20.74431;-4.66919;992.27899;-26.21393;55.92995;0.49741;0;0
231;8.6381;4.68376;5.16525;18.21135;-26.35954;-0.76294;992.25854;-24.9558;59.12219;0.53471;0;0
232;7.4697;3.79384;3.30157;7.89642;-35.14859;0.15259;992.20929;-24.91693;66.15482;0.63336;0;0
233;5.71801;3.00872;2.56915;24.19279;-36.97964;-2.41089;992.18121;-25.63924;65.8052;0.63051;0;0
234;4.6077;2.08347;1.34087;27.54972;-33.86686;-4.30297;992.19861;-23.4686;73.77469;0.7437;0;0
235;5.09578;2.6488;0.45933;12.35198;-28.5568;-2.28882;992.14978;-27.37076;84.84929;0.92027;0;0
236;7.98173;4.03997;0.82404;14.85442;-22.51432;-5.2185;992.11151;-26.72418;84.10559;0.90827;0;0
237;7.88172;4.49871;0.09402;6.55364;-14.03045;0.94604;992.16504;-29.71498;89.31654;0.98964;1;0
238;8.47999;4.81192;-0.02455;6.73675;-7.56072;1.92261;992.1217;-29.57236;89.8341;0.99748;0;0
239;8.54288;4.50829;-0.31441;-0.77057;-9.69695;3.20434;992.11871;-27.80574;87.89227;0.96747;0;0
240;8.77045;4.58375;-0.55875;-4.1275;-12.3825;1.7395;992.11829;-27.54556;86.35474;0.94363;0;0
241;8.13205;4.58914;-0.88513;-2.9068;-0.9079;0.03052;992.13635;-29.29303;83.78812;0.90563;0;0
242;8.15481;4.48973;-1.09533;-6.32476;7.51495;-3.14331;992.15723;-28.6196;82.34997;0.88314;0;0
243;7.7332;4.40588;-1.23726;-7.36236;18.13506;-6.07299;992.17206;-29.36128;80.91006;0.86231;0;0
244;3.91541;2.4895;-0.22158;-8.8272;37.05594;3.08227;992.17206;-32.40761;86.76096;0.9523;0;0
245;2.51046;1.28577;0.57911;-22.43803;55.61061;15.53343;992.18713;-26.52196;77.01038;0.79888;0;0
246;6.69057;3.24408;2.90512;-22.19389;60.06617;8.81957;992.2392;-23.97737;66.52901;0.63608;0;0
247;9.643;4.52686;3.74294;-26.46635;44.25808;7.96508;992.18225;-23.63582;68.78625;0.66851;0;0
248;10.29876;4.96283;5.84018;-7.42339;29.79276;-15.53343;992.22095;-22.74237;60.44349;0.54507;0;0
249;9.09384;4.59213;5.4575;-6.32476;10.3836;-7.53784;992.24176;-23.41188;59.0307;0.52779;0;0
250;8.41771;5.05326;5.92761;-13.22173;9.22393;-2.22778;992.1897;-26.14314;54.84743;0.48315;0;0
251;10.31673;5.32335;6.86365;-23.29252;12.6419;-0.15259;992.25684;-23.24854;56.36446;0.49107;0;0
252;9.52742;5.46109;6.64985;15.03752;-2.37274;6.62231;992.25433;-25.17491;55.08613;0.48202;0;1
253;9.58671;4.79874;6.10727;-16.02934;11.17705;-5.09643;992.26959;-22.88814;57.50056;0.50501;0;0
254;8.61773;4.86102;6.61092;3.56292;3.18145;-7.04955;992.26666;-24.11096;52.50711;0.44444;0;0
255;10.13826;6.15818;6.70794;5.0888;-4.87518;2.47192;992.25641;-26.8656;56.50956;0.50776;0;0
256;10.35266;5.99049;7.33675;11.8637;-6.52313;0.33569;992.30316;-25.27242;54.67545;0.47713;0;0
257;9.39207;5.38803;6.17794;17.41789;-15.37322;0.57983;992.30743;-25.60773;56.66379;0.50443;0;0
258;8.93034;5.08141;6.00067;10.27679;-24.22331;9.7351;992.26874;-25.28079;56.10118;0.49569;0;0
259;8.41053;4.48793;4.63405;21.01896;-32.70719;10.46752;992.25562;-25.04962;61.146;0.56281;0;0
260;6.84987;3.05064;3.20994;24.37589;-37.71207;-0.15259;992.21222;-21.96295;64.89159;0.60646;0;0
261;5.01014;2.53861;1.24924;19.92033;-35.02652;-1.06811;992.20184;-26.18063;75.99921;0.78289;0;0
262;4.68017;2.14994;0.89291;17.72307;-29.96061;-6.62231;992.14783;-24.28651;79.19852;0.82918;0;0
263;5.5605;2.80391;0.3725;13.0844;-24.89469;-6.86645;992.1474;-26.70818;86.1675;0.94029;0;0
264;7.70086;4.00883;-0.10121;5.94329;-11.52801;-1.43432;992.15228;-27.49808;89.24703;0.98834;0;0
265;8.62672;4.68077;0.85998;-12.91655;-5.79071;2.65503;992.1449;-28.3652;84.30713;0.91271;0;0
266;8.34225;4.72808;0.21679;8.87298;-8.72039;3.08227;992.15271;-29.53464;88.51138;0.9774;1;0
267;8.33627;4.59513;0.26949;5.51605;-10.24627;6.56127;992.10834;-28.85184;88.14841;0.9717;0;0
268;8.73152;4.5059;-0.48389;-8.70513;-5.18035;4.97436;992.05713;-27.26018;86.828;0.95081;0;0
269;8.2656;4.46996;0.03234;-4.37164;-1.45721;4.42505;992.14697;-28.40395;89.77583;0.99656;0;0
270;8.04881;4.09986;-0.28027;-5.59234;6.0501;-0.82397;992.12659;-26.97913;88.00568;0.96899;0;0
271;7.54516;3.77707;-0.33956;-6.01959;14.0457;-1.19018;992.15228;-26.56914;87.42323;0.95979;0;0
272;11.70012;6.24202;-0.00359;-6.08062;4.52423;11.44408;992.19843;-28.07996;89.98241;0.99973;0;0
273;9.6424;4.57776;-0.34794;1.6098;-12.50457;1.25122;992.20355;-25.38174;87.9334;0.96742;0;0
274;4.03279;1.79661;-0.56174;4.96673;-1.091;-7.96508;992.20074;-23.80901;82.07011;0.87378;0;0
275;2.57514;1.19474;0.22697;-11.87896;21.55302;-0.27466;992.19586;-24.80458;84.96299;0.9203;0;0
276;5.4545;3.26384;1.22708;-4.1275;29.91483;7.23266;992.19586;-30.27573;77.32141;0.81045;0;0
277;8.25242;3.95434;0.78632;-15.11382;32.66141;2.34985;992.11871;-25.50171;84.55711;0.91439;0;0
278;8.80997;4.6113;2.94524;-21.64457;34.30936;5.09643;992.23712;-26.40038;71.51482;0.71601;0;0
279;10.73234;5.02631;3.50399;-20.54594;32.96658;1.12915;992.25519;-23.90125;70.35571;0.69265;0;0
280;10.00472;5.02152;4.33582;-12.91655;26.19169;-7.90405;992.26007;-24.72739;66.56919;0.63882;0;0
281;10.1742;5.02931;4.94367;-6.08062;19.47783;-0.27466;992.27576;-23.97049;64.08476;0.60065;0;0
282;10.15443;4.82809;5.12453;-3.70025;12.09258;2.65503;992.23669;-23.00003;63.22179;0.58528;0;0
283;9.81966;4.96343;5.3533;-3.45611;18.80644;-3.9978;992.23712;-23.93138;61.40251;0.5625;0;0
284;10.24426;4.73945;5.95097;-36.78128;23.50614;0.94604;992.25519;-21.8036;59.84738;0.53363;0;0
285;7.7374;3.5501;4.95265;24.37589;-4.63104;3.9978;992.27533;-21.1284;57.37698;0.49713;0;1
286;6.82472;3.43392;4.3951;-4.49371;-0.84686;-3.26538;992.29364;-22.92967;57.21855;0.50135;0;0
287;6.34263;3.07699;4.03818;-5.47027;10.50567;-1.31225;992.263;-22.25572;57.51621;0.50295;0;0
288;7.59367;4.02201;4.70592;-3.51715;20.45439;-8.27026;992.26514;-24.23779;58.21283;0.51967;0;0
289;10.78085;5.99648;6.02463;2.03705;10.13946;-3.93676;992.28064;-25.89864;60.80237;0.56117;0;0
290;10.94734;6.1989;8.12786;25.04728;-22.33122;4.48608;992.31702;-24.44844;53.40793;0.45734;0;0
291;10.30295;5.68627;6.17554;20.40861;-22.45329;-0.88501;992.27832;-25.33203;59.06172;0.53532;0;0
292;9.28727;5.37965;5.18621;1.97601;-11.95525;9.30785;992.26709;-26.82748;60.82008;0.56492;0;0
293;9.01718;5.1928;5.36168;7.71331;-9.45281;0.03052;992.29108;-26.33473;59.26398;0.54196;0;0
294;8.97885;4.45559;4.61309;-0.22125;-23.61296;11.50512;992.24731;-23.81593;62.80712;0.58193;0;0
295;7.7356;3.73515;4.26036;16.62444;-34.04996;-2.71606;992.19861;-22.92589;61.15635;0.55569;0;0
296;7.0439;3.35846;3.00333;15.09856;-41.19106;-17.85277;992.21118;-23.68164;66.90791;0.64082;0;0
297;5.33293;3.30816;1.97867;16.01409;-49.36977;-7.4768;992.1778;-30.18164;69.64376;0.6993;0;0
298;4.19688;2.76558;0.75817;21.81242;-49.49184;0.82397;992.16187;-32.96199;79.75992;0.85084;0;0
299;5.91084;3.01711;-0.69529;8.81194;-30.02164;-1.5564;992.12872;-26.88229;83.29118;0.8958;0;0
300;7.64996;4.09028;-1.10432;5.51605;-9.75799;-2.16675;992.10809;-27.88754;81.78577;0.87372;0;0
301;8.14642;4.69514;-2.16012;-27.32084;-14.39666;11.68822;992.12341;-29.1218;75.14909;0.7761;0;0
302;8.45724;4.40768;0.5312;47.63027;-3.89862;-1.67847;992.1521;-27.48108;86.40598;0.94439;0;0
303;8.88962;4.66699;-1.00011;-6.26373;-2.86102;-4.91333;992.16461;-27.55115;83.58102;0.90088;1;0
304;8.34944;4.91373;-0.60186;4.05121;0.00763;0.57983;992.08221;-30.41235;85.877;0.93799;0;0
305;8.17697;4.71909;-0.41322;-4.3106;6.29425;-1.43432;992.16992;-29.9585;87.10704;0.95627;0;0
306;7.7332;4.53225;-0.24973;-2.41852;10.50567;-1.12915;992.16718;-30.36052;88.15039;0.97215;0;0
307;7.2056;4.15496;-0.39765;-15.11382;16.79228;-3.02124;992.12109;-29.9313;86.84127;0.95225;0;0
308;10.93656;6.39713;-0.08624;-2.29645;12.825;5.27954;992.13446;-30.32388;89.54822;0.99319;0;0
309;10.88505;5.96594;-0.33836;-1.44195;-3.04413;2.65503;992.15466;-28.71484;88.21954;0.97275;0;0
310;4.45439;2.63742;-1.12947;-13.03862;1.22833;-3.81469;992.17505;-29.85287;75.77179;0.78683;0;0
311;2.42782;1.28398;0.62223;-16.51763;56.09889;5.34057;992.23181;-27.12619;75.62507;0.77904;0;0
312;5.94917;3.41835;3.06142;-32.69193;48.2864;6.4392;992.2063;-27.0631;62.76981;0.59253;0;0
313;8.66145;4.67058;3.1764;-7.97271;24.66581;8.57543;992.20886;-26.85162;69.86056;0.69282;0;0
314;9.13636;4.40469;2.87697;-29.64017;27.22928;-1.31225;992.17529;-24.69513;72.52117;0.72712;0;0
315;7.78171;4.06273;4.44062;-28.60258;40.35183;-4.91333;992.23199;-24.39197;60.28885;0.54861;0;0
316;9.85739;5.55871;5.96774;-12.18413;22.52958;-6.56127;992.27283;-25.7525;58.80899;0.53354;0;0
317;8.91058;4.97182;5.99469;-0.09918;-0.96893;-1.12915;992.23669;-24.84183;56.0689;0.49345;0;0
318;9.02916;4.74065;6.11027;-1.62506;1.96075;-0.45776;992.20605;-23.50079;55.91276;0.48603;0;0
319;9.71067;5.06524;6.06535;-2.35748;4.58526;1.61743;992.23431;-23.86496;58.01082;0.51553;0;0
320;8.94711;4.68615;6.08392;-25.30668;11.17705;-1.00708;992.24707;-23.41817;55.78482;0.48402;0;0
321;8.22847;4.74245;5.04488;22.91105;-2.3117;-1.61743;992.29108;-26.16722;58.48752;0.53089;0;1
322;8.21469;4.41427;5.70603;6.00433;-5.05828;-10.34545;992.29639;-23.81372;55.21567;0.47808;0;0
323;6.81274;4.61309;4.44721;2.03705;-11.83318;-2.89917;992.19543;-29.55377;56.86439;0.5245;0;0
324;5.54973;3.46386;3.85253;-3.76129;4.76837;1.80054;992.2522;-27.14516;55.23225;0.49256;0;0
325;5.92881;3.51297;4.13879;-0.16022;14.59502;3.02124;992.2677;-25.91295;55.08184;0.48514;0;0
326;10.36164;6.03122;5.69824;19.98137;-11.3449;7.35473;992.25238;-27.02312;61.19201;0.57073;0;0
327;13.02302;7.6841;8.06019;31.08976;-46.56215;12.90892;992.28833;-26.6438;58.24587;0.52961;0;0
328;10.63113;5.52697;3.85612;17.96721;-37.16275;3.75366;992.32953;-26.04607;70.06329;0.69365;0;0
329;8.77404;4.94247;2.99974;13.51165;-13.17595;7.29369;992.24963;-28.0583;71.12506;0.71452;0;0
330;9.29206;5.02991;3.92379;7.83538;-15.92253;6.56127;992.23712;-26.50426;67.10694;0.65187;0;0
331;9.4813;4.55919;2.9129;12.10784;-24.22331;0.94604;992.2522;-24.68623;72.92169;0.73316;0;0
332;8.30153;4.32803;2.31164;14.79338;-20.86638;-1.98364;992.21094;-26.66786;74.43966;0.76028;0;0
333;6.55044;3.38301;1.53011;6.61468;-29.04508;0.03052;992.16699;-26.69865;76.85207;0.79679;0;0
334;4.3975;2.08826;0.82884;13.32854;-23.49088;-4.66919;992.1438;-25.01646;79.32618;0.83216;0;0
335;4.45799;2.38051;-0.12636;11.74163;-21.04948;-12.05443;992.06073;-28.09209;88.37639;0.975;0;0
336;6.94809;3.85852;-1.39716;11.25335;-15.12908;-1.86157;992.10962;-28.56551;78.63025;0.82686;0;0
337;8.49497;4.80234;-2.25834;-50.08693;1.47247;2.47192;992.1402;-28.64952;75.11259;0.77453;0;0
338;8.87165;4.8754;0.5312;49.70546;-21.29362;0.27466;992.25879;-28.74765;86.57346;0.9476;0;0
339;8.34405;4.69753;-1.51454;-8.8272;-7.07244;1.37329;992.12213;-28.98334;79.71216;0.84377;1;0
340;8.14642;4.59093;-0.60785;2.15912;1.10626;2.71606;992.20972;-29.33556;85.73273;0.93513;0;0
341;8.21529;4.14897;-0.52461;-4.98199;0.19073;3.50952;992.13916;-26.74826;86.34618;0.94309;0;0
342;7.9997;4.12981;-1.03125;-15.72417;11.11602;-1.5564;992.13745;-27.11282;82.65442;0.8862;0;0
343;9.81547;5.33473;-0.89591;-11.39068;17.28056;-3.32641;992.16315;-28.42456;84.78477;0.92006;0;0
344;8.19433;4.72688;-1.01508;-0.16022;11.66533;3.38745;992.15021;-29.78992;82.93838;0.89331;0;0
345;3.69203;1.91219;-0.50664;-14.25933;18.50127;1.92261;992.15613;-27.16304;82.18632;0.87904;0;0
346;3.11831;1.39537;1.23846;-14.3814;42.5491;-0.33569;992.19696;-22.58125;68.33912;0.65919;0;0
347;6.00846;3.31654;1.65048;-14.01519;56.22096;-2.04468;992.21991;-28.02469;74.64008;0.76618;0;0
348;8.99502;4.84426;2.9165;-23.29252;57.13649;-4.36401;992.1861;-27.12576;72.03552;0.7255;0;0
349;9.57353;5.37426;5.39641;-22.377;39.68045;-7.59887;992.23224;-26.05984;60.59088;0.55888;0;0
350;9.45555;5.70962;5.71441;-11.02447;12.33672;-0.33569;992.24261;-27.32964;58.85355;0.54051;0;0
351;9.44777;5.46588;5.9869;-9.31548;2.5711;3.14331;992.23712;-26.04391;57.63821;0.51909;0;0
352;9.68731;5.33114;6.41988;-5.04303;8.85772;4.66919;992.19312;-24.6424;56.46716;0.49789;0;0
353;10.13766;5.11015;6.14081;-1.99127;8.18633;-1.43432;992.24731;-23.32309;58.79495;0.52423;0;0
354;9.2717;4.89935;6.54744;-13.09966;9.346;-9.06371;992.25983;-23.34709;54.77122;0.47039;0;0
355;7.55833;4.5538;4.46996;-1.62506;-5.11932;-2.7771;992.26788;-27.41068;59.40014;0.54811;0;1
356;6.63308;3.91002;4.80293;9.97161;-12.93181;2.34985;992.26239;-25.52216;54.09215;0.47075;0;0
357;6.39233;3.61358;4.17712;-6.26373;-2.86102;-3.08227;992.24457;-25.32455;56.83711;0.50555;0;0
358;7.53917;4.22562;4.49811;-6.26373;7.02667;1.5564;992.24945;-25.70288;59.17834;0.53833;0;0
359;11.03238;6.03241;6.15159;-2.66266;-1.94549;0.88501;992.25476;-25.52766;60.85621;0.56054;0;0
360;10.95572;6.28394;7.50264;10.39886;-10.85662;-6.31713;992.31403;-25.32553;55.59608;0.48928;0;0
361;9.70648;6.02882;6.01385;21.75138;-7.19451;-8.08715;992.30359;-27.83348;58.21886;0.53426;0;0
362;9.1645;5.91563;5.42157;16.80754;-10.85662;-1.49536;992.23883;-29.05475;59.39215;0.55492;0;0
363;8.68181;5.58925;5.27844;16.3803;-20.43913;9.79613;992.23669;-28.815;58.7009;0.54482;0;0
364;8.40034;4.87121;3.97889;26.32902;-32.46305;7.23266;992.20544;-27.65752;64.65505;0.62084;0;0
365;6.80975;3.67107;2.56975;17.29582;-37.58999;5.09643;992.16675;-26.76515;69.32533;0.68477;0;0
366;5.63297;2.95961;1.78104;28.46525;-46.25698;-0.94604;992.13257;-26.60925;72.45403;0.73046;0;0
367;4.14478;2.26552;0.81386;21.44621;-41.67935;-1.00708;992.16913;-28.20711;78.8908;0.8302;0;0
368;5.63357;3.15784;-0.41322;21.14103;-30.32682;1.25122;992.14337;-29.20685;85.80489;0.93615;0;0
369;7.89789;4.13519;-1.50197;8.20159;-13.11492;-1.00708;992.08411;-27.21964;79.23247;0.83386;0;0
370;8.40154;4.93588;-0.20541;4.60052;-5.79071;1.43432;992.13507;-30.42665;88.59943;0.97892;0;0
371;8.52431;4.28371;-1.22888;4.72259;-12.99285;5.40161;992.20435;-26.44516;81.79665;0.87224;1;0
372;8.97286;4.43523;-1.68342;-4.61578;-6.76727;0.33569;992.11176;-25.91129;79.37411;0.83414;0;0
373;7.97515;4.44122;-1.14204;-6.99615;0.55695;2.16675;992.09644;-28.86613;81.85062;0.87586;0;0
374;7.85178;4.2921;-1.61575;-9.62066;9.04082;-1.31225;992.14508;-28.16554;78.37192;0.82231;0;0
375;8.78063;5.00835;-1.3229;-12.48931;15.38848;2.89917;992.1062;-29.42389;81.43217;0.87024;0;0
376;9.59988;5.36467;-0.75338;-1.68609;6.11114;1.06811;992.09576;-29.1228;85.51275;0.93165;0;0
377;7.47928;4.41786;-1.55646;-6.75201;7.33184;-0.33569;992.16254;-30.04039;78.24435;0.82363;0;0
378;4.5029;2.4901;-1.78164;-19.75249;37.8494;-1.86157;992.15741;-27.21277;68.41306;0.67281;0;0
379;2.56376;1.4325;2.08347;-21.09526;68.61108;12.23754;992.1449;-23.44243;50.9006;0.42139;0;0
380;7.08283;3.39739;2.52244;-24.45219;44.44118;4.54712;992.1806;-24.31654;70.39744;0.69427;0;0
381;8.21709;4.131;2.36314;-6.50787;27.04618;5.58471;992.16992;-25.78751;73.95538;0.75114;0;0
382;8.56444;4.33641;3.92918;-29.21293;40.59597;-9.36889;992.14404;-24.71223;65.35533;0.6212;0;0
383;9.63761;4.99757;5.4545;-8.46099;28.02274;-8.63647;992.24243;-24.28896;60.49186;0.55105;0;0
384;8.82494;5.05805;5.84317;-14.62554;7.51495;2.41089;992.198;-25.54283;56.49066;0.50188;0;0
385;8.99921;4.60052;6.08511;-12.67241;14.96123;-1.12915;992.19501;-22.95197;55.93412;0.4842;0;0
386;10.02448;5.11135;6.94389;-13.03862;20.69853;-3.93676;992.2392;-22.74097;55.2899;0.47484;0;0
387;10.28798;5.27125;8.17756;-3.27301;12.21465;-5.34057;992.24707;-21.85553;51.52001;0.42248;0;0
388;8.54587;4.64962;6.40791;-12.18413;9.04082;-7.11059;992.25983;-23.52347;53.13653;0.44994;0;1
389;6.17315;3.64652;5.17962;11.13128;-10.61248;-4.36401;992.30042;-24.34755;50.00143;0.4144;0;0
390;5.83718;3.32552;4.61669;5.63812;-9.02557;-5.46264;992.21051;-24.0773;51.65918;0.43363;0;0
391;8.64888;4.9281;5.62279;8.81194;-12.3825;0.5188;992.23071;-25.53458;56.97139;0.50818;0;0
392;10.97488;6.10128;7.16248;10.58196;-12.44353;0.82397;992.28174;-24.96471;56.87054;0.50453;0;0
393;10.14904;5.55152;6.50672;10.02502;1.41907;-12.18413;992.2384;-24.72552;57.3354;0.50976;0;0
394;9.5909;5.81383;6.39054;8.37707;-7.55309;-8.94927;992.22754;-26.76894;56.32397;0.50493;0;0
395;9.31242;5.70483;6.59535;14.84679;-31.41782;10.21575;992.21436;-26.56158;54.69267;0.48304;0;0
396;8.57042;4.94127;5.12573;24.30723;-48.50765;8.3847;992.19629;-26.32655;59.11756;0.53996;0;0
397;6.67859;4.20406;2.69192;30.47178;-51.5594;-0.46539;992.13171;-30.27815;68.04728;0.67716;0;0
398;5.13591;3.13329;1.75469;24.73448;-42.22103;-0.70953;992.13702;-29.99831;71.13721;0.72001;0;0
399;4.97661;2.67455;0.6887;28.39658;-40.14584;0.3891;992.12323;-28.02867;82.12103;0.879;0;0
400;5.0317;2.87577;-0.01138;18.38683;-40.0848;2.46429;992.12042;-29.74922;89.87044;0.99804;0;0
401;6.37317;3.67107;-1.68462;8.13293;-24.09361;-0.16022;992.13019;-29.11313;75.19365;0.77673;0;0
402;7.44215;4.59213;-3.11772;-27.14536;-6.57653;8.20159;992.13019;-29.64511;67.26989;0.66419;0;0
403;7.83801;4.67418;-0.1569;38.52841;-11.82555;3.92913;992.1712;-30.8046;88.85319;0.98281;0;0
404;8.56683;4.69095;-1.61276;-9.50622;-0.65613;2.22015;992.10724;-28.28551;79.33852;0.83708;1;0
405;8.43508;4.73886;-0.64139;-3.95202;4.16565;2.28119;992.10663;-29.25694;85.6517;0.93385;0;0
406;8.1602;4.75922;-0.57432;-0.41199;-0.16785;5.45501;992.14722;-30.19016;85.97415;0.93932;0;0
407;8.15181;4.38073;-1.07497;-6.75964;7.2174;1.12152;992.11365;-28.04785;82.48782;0.88462;0;0
408;9.43938;4.89277;-0.76236;-6.88171;10.02502;0.75531;992.1264;-27.32327;85.38259;0.92848;0;0
409;9.86698;5.58805;-1.22708;2.7008;-4.62341;-3.0899;992.13635;-29.33641;82.91093;0.89241;0;0
410;6.36598;3.87229;-1.36602;0.19836;0.13733;5.39398;992.14935;-30.74165;77.88905;0.81968;0;0
411;2.95243;1.4852;-0.45095;-2.97546;29.9835;4.11224;992.13916;-26.44003;81.31586;0.86481;0;0
412;3.11053;1.57862;1.44088;-6.88171;54.39754;6.18743;992.19287;-24.72612;65.14516;0.61822;0;0
413;7.39784;3.35547;1.47921;-20.98082;50.12508;2.40326;992.15637;-23.97807;78.69275;0.82085;0;0
414;10.03825;4.77778;2.55059;-26.04673;50.55232;-3.15094;992.1687;-24.76385;75.74359;0.77638;0;0
415;10.1712;5.30359;4.89516;-11.33727;30.59385;-10.41411;992.24304;-25.16643;64.29958;0.6075;0;0
416;9.09384;4.78916;4.37534;-14.93834;11.9171;-2.60162;992.19946;-25.38745;64.30627;0.60831;0;0
417;9.36572;4.80533;5.10177;-10.1776;12.71056;-2.78473;992.23285;-24.25465;61.42164;0.56387;0;0
418;9.70708;5.74556;5.78328;-20.00426;18.26476;-2.78473;992.21967;-26.95282;59.21435;0.54377;0;0
419;9.6406;5.73537;5.56649;-11.58141;20.46202;0.3891;992.21735;-27.25768;59.99782;0.55549;0;0
420;10.0107;5.01074;6.80256;-27.87778;21.07237;-1.50299;992.21991;-22.48952;55.80277;0.4807;0;0
421;7.8931;4.18191;5.81862;4.34875;-2.30408;-1.38092;992.21948;-23.09654;53.60319;0.45419;0;1
422;6.1971;3.77228;4.94487;4.53186;-8.83483;-3.70025;992.19586;-25.44545;51.41252;0.43679;0;0
423;7.12176;4.07411;4.8209;0.13733;-6.39343;1.24359;992.22137;-25.34842;55.90492;0.4934;0;0
424;9.77954;5.07003;5.75454;2.21252;-14.6942;9.91057;992.24219;-24.07591;59.52633;0.53698;0;0
425;11.29229;5.36767;6.47917;4.40979;-7.98034;2.34222;992.27515;-22.40605;60.15411;0.5399;0;0
426;10.65449;5.57069;6.04858;11.00158;-2.12097;1.6098;992.26215;-24.45071;60.4163;0.55058;0;0
427;10.11072;5.48744;6.10188;8.68224;-15.12145;13.02337;992.22137;-24.92294;58.88874;0.53142;0;0
428;10.13886;4.555;5.96055;13.01574;-39.53549;12.41301;992.23267;-21.17099;59.5491;0.52741;0;0
429;9.06389;4.02919;4.52805;28.82383;-58.27327;10.643;992.22479;-21.68625;63.45464;0.58473;0;0
430;6.8337;2.69312;2.12898;24.61241;-65.90265;5.51605;992.1759;-20.61916;72.69602;0.72161;0;0
431;5.00475;1.57024;0.20721;14.05333;-50.03353;-4.98199;992.15765;-17.40518;87.62917;0.96053;0;0
432;4.52446;1.68522;-0.25512;13.13781;-33.43198;-6.5689;992.20905;-20.39905;86.77271;0.94723;0;0
433;5.55152;2.40266;-0.74619;7.88879;-24.52085;-6.26373;992.12897;-23.21626;82.34464;0.87757;0;0
434;7.92604;3.50518;-1.94573;-2.48718;-9.75036;-3.57818;992.11853;-23.24278;76.20746;0.78094;0;0
435;8.265;4.31306;-1.1121;-16.64732;3.37219;0.87738;992.1438;-27.34735;82.33656;0.88155;0;0
436;8.76506;4.33402;-1.20912;16.79991;-8.10241;4.35638;992.17487;-26.09686;82.14576;0.87728;1;0
437;8.89262;3.816;-1.72594;-7.36999;-4.01306;-1.99127;992.12573;-22.84369;79.01619;0.82441;0;0
438;8.46742;3.85313;-0.83003;-1.81579;2.15149;3.92913;992.14081;-24.36494;84.40137;0.91113;0;0
439;8.75667;3.67826;-1.1636;-0.59509;2.94494;3.44085;992.16913;-22.60645;82.43077;0.8784;0;0
440;8.86926;3.83217;-1.52113;-6.94274;7.27844;0.02289;992.10938;-23.06699;80.26813;0.84448;0;0
441;9.62982;4.42325;-1.17678;4.776;-0.9613;0.69427;992.1347;-24.50998;83.03291;0.88963;0;0
442;7.58888;3.53393;-2.03855;-4.92858;-6.63757;2.34222;992.12787;-24.21483;74.96394;0.7634;0;0
443;3.11173;1.24146;-1.13186;-0.35095;22.171;5.14984;992.12427;-20.55243;70.01158;0.67993;0;0
444;2.12718;0.70846;0.88932;-17.25768;59.95173;12.22991;992.21436;-17.08107;67.31145;0.63129;0;0
445;7.03133;2.44159;0.94621;-15.67076;59.70759;3.44085;992.13678;-18.99052;82.33569;0.87389;0;0
446;10.94135;4.09507;2.62005;-28.91538;50.49129;3.8681;992.14978;-20.00072;76.53333;0.78117;0;0
447;11.17251;3.64712;4.43822;-15.06041;29.00693;4.53949;992.20099;-16.87654;68.33481;0.64672;0;0
448;10.03765;3.61178;4.46936;-11.39831;10.5133;-4.06646;992.17316;-18.19627;65.99851;0.61358;0;0
449;9.84661;3.87948;4.52865;-7.7362;14.84679;-6.75201;992.23328;-19.69473;65.30137;0.6066;0;0
450;10.60658;4.37774;5.48684;-2.79236;15.51817;-8.03375;992.2392;-20.13251;62.64722;0.56861;0;0
451;11.73425;4.87719;5.04787;-13.4735;24.12413;-0.46539;992.21051;-20.89725;66.72346;0.63082;0;0
452;10.27421;3.98727;6.38754;19.48546;5.50842;-3.39508;992.23071;-18.24135;58.1305;0.49855;0;0
453;7.48827;3.23629;4.19508;-13.4735;2.27356;-3.02887;992.24835;-20.65874;60.74155;0.54268;0;1
454;6.65943;3.09256;4.22203;6.85119;-3.52478;1.4267;992.17908;-21.41548;57.6256;0.50152;0;0
455;7.76015;3.14227;4.67478;3.79944;-5.90515;1.12152;992.20691;-19.1291;58.93491;0.51248;0;0
456;10.71258;4.08549;5.20837;-1.93786;-8.22448;3.07464;992.25854;-18.93114;64.07136;0.5864;0;0
457;11.7624;4.35438;6.31029;-3.09753;5.02014;-4.43267;992.25092;-18.06712;61.78734;0.55056;0;0
458;11.04136;4.53644;6.27556;5.87463;8.74328;-8.15582;992.27856;-19.65648;60.38749;0.53466;0;0
459;9.63222;4.59213;6.33245;-3.89099;-3.70788;-5.65338;992.23199;-21.72079;56.67814;0.48966;0;0
460;10.4365;4.91013;6.38515;25.65;-23.97154;6.73675;992.25769;-21.86681;58.54132;0.51566;0;0
461;9.04952;3.87109;4.63405;18.02061;-54.6722;2.95257;992.17737;-20.84435;62.88405;0.57404;0;0
462;6.10548;2.60149;2.56616;18.81407;-48.69075;2.03705;992.15381;-21.44519;67.20278;0.63935;0;0
463;5.01014;1.89842;1.60317;21.31651;-46.18831;-3.94439;992.15637;-19.84395;72.25607;0.71333;0;0
464;4.92331;1.89482;0.37729;9.29259;-43.93002;-0.58746;992.13507;-20.99394;85.61781;0.92866;0;0
465;6.04739;2.58472;-0.34555;10.63537;-34.77475;1.12152;992.12531;-23.10869;86.72968;0.94753;0;0
466;8.65906;3.32792;-1.0576;2.57873;-15.7318;0.69427;992.08838;-20.8815;83.03647;0.88673;0;0
467;9.00999;3.58064;-0.40783;2.7008;-13.41246;5.27191;992.09369;-21.65314;87.40833;0.95797;0;0
468;8.99083;3.50039;-0.5288;0.4425;-9.75036;-1.44195;992.09601;-21.239;86.63399;0.94527;0;0
469;8.76925;3.39859;-1.02467;4.22668;-3.09753;-3.21197;992.16016;-21.05362;83.33534;0.89169;1;0
470;9.04772;3.80402;-1.05401;5.63049;-0.71716;-1.13678;992.08838;-22.66617;83.3553;0.89322;0;0
471;8.58719;3.67526;-1.11929;-3.2196;2.33459;1.97601;992.06219;-22.99654;82.57372;0.88102;0;0
472;9.09443;3.64352;-0.91507;-0.10681;-2.60925;3.19671;992.11829;-21.73318;84.2543;0.907;0;0
473;8.70158;3.58423;-1.03604;-7.06481;-1.93786;-0.52643;992.11536;-22.24542;83.2101;0.89057;0;0
474;9.63282;3.8681;-1.32889;-10.23864;3.98254;0.51117;992.06372;-21.69202;82.14536;0.87302;0;0
475;9.36093;4.01782;-1.15282;-1.14441;-0.90027;1.91498;992.10217;-23.07367;82.97922;0.88755;0;0
476;6.50432;3.01351;-1.76367;0.38147;13.50402;2.22015;992.13531;-24.09238;74.82883;0.76109;0;0
477;3.55549;1.24625;0.03713;-1.26648;30.65488;7.46917;992.12726;-19.31529;89.40169;0.99015;0;0
478;3.74473;0.95819;-0.20901;-16.09801;36.20908;3.31878;992.14532;-14.33134;86.80545;0.94601;0;0
479;6.86125;2.92967;0.84141;-9.50622;50.61336;8.99505;992.13977;-22.96786;83.00858;0.88793;0;0
480;10.71258;3.73216;2.38829;-17.68492;37.55185;10.70403;992.14996;-18.78018;77.43186;0.79398;0;0
481;10.29217;3.27462;3.2297;-3.70788;29.19004;2.34222;992.17273;-16.88673;72.57804;0.7135;0;0
482;10.71977;3.498;3.6579;-14.08385;24.30723;-11.51275;992.20117;-17.16217;71.15887;0.69143;0;0
483;11.06711;4.17771;4.92091;-11.52038;24.67344;-5.53131;992.16504;-19.03078;66.02802;0.61592;0;0
484;11.36535;4.28132;5.44732;-9.38415;21.9879;-5.22613;992.20819;-18.76247;64.39198;0.59076;0;0
485;10.83894;4.31246;5.86293;-12.2528;25.10069;-3.45611;992.20819;-19.28758;61.59043;0.55093;0;0
486;9.1645;3.59322;5.07602;-3.09753;5.08117;-4.85992;992.24646;-18.93112;61.01888;0.54169;0;1
487;7.61702;3.10873;4.42325;0.2594;-6.5155;-0.22125;992.16125;-19.4398;59.85601;0.52645;0;0
488;7.4727;3.11951;3.93457;2.09045;-2.97546;-7.85064;992.19165;-20.27328;62.232;0.56297;0;0
489;11.04555;4.99936;5.18501;6.48498;-4.92858;-3.51715;992.23029;-22.27975;64.85366;0.60679;0;0
490;12.24149;5.64075;6.38694;6.54601;-3.40271;-7.11822;992.28705;-22.22139;62.4469;0.57178;0;0
491;10.45986;5.26945;5.22873;29.49522;1.17493;-14.50347;992.22479;-24.25699;63.4402;0.59234;0;0
492;8.901;5.23472;5.0838;11.97814;-10.29967;1.18256;992.19843;-27.05246;60.26716;0.55831;0;0
493;9.01718;4.40948;4.42385;11.30675;-24.03257;12.22991;992.17206;-23.70245;63.86732;0.5967;0;0
494;8.68541;3.73635;3.74413;17.71544;-34.71371;9.42229;992.13635;-21.5562;66.67993;0.63182;0;0
495;7.81405;2.98896;2.36254;10.6964;-42.22103;1.18256;992.12042;-20.10979;73.17756;0.72824;0;0
496;6.77741;2.82906;1.83374;21.49961;-49.97249;-3.15094;992.11725;-21.94632;74.86018;0.75775;0;0
497;5.41977;2.58472;0.9025;17.4713;-50.5218;0.51117;992.09961;-25.19363;80.54589;0.85137;0;0
498;5.47367;2.29786;-0.46951;13.93126;-48.62972;0.5722;992.05072;-22.69795;85.09735;0.92116;0;0
499;7.01935;3.13808;-2.01041;7.52258;-24.09361;-0.77057;992.0705;-23.2571;74.01781;0.74703;0;0
500;8.4225;3.98488;-1.47621;-1.51062;-8.34655;-1.13678;992.1015;-24.98642;80.05873;0.84352;0;0
501;8.61294;4.12082;-1.2732;12.34435;-10.48278;-3.02887;992.07281;-25.32829;81.59122;0.86782;0;0
502;8.50634;4.02979;-2.2242;1.35803;1.54114;-4.67682;992.07007;-24.62344;75.34662;0.77003;1;0
503;8.60037;3.85492;-1.55227;4.40979;-1.08337;1.67084;992.05457;-23.80231;79.7689;0.83749;0;0
504;8.49676;3.85971;-1.95711;-2.60925;3.7384;1.85394;992.06946;-23.51837;76.91641;0.79243;0;0
505;8.17397;3.54052;-2.15473;-10.78795;9.96398;0.45013;992.06177;-22.72575;75.23227;0.76489;0;0
506;8.54767;3.93397;-1.9589;-14.45006;16.49474;1.24359;992.07941;-24.16147;77.09219;0.79619;0;0
507;9.83164;5.07422;-1.01748;-7.85827;13.56505;-0.34332;992.08154;-27.17458;84.09148;0.90842;0;0
508;7.82902;4.25078;-1.31691;-5.11169;6.79016;3.37982;992.13019;-28.16589;80.4517;0.85376;0;0
509;3.71838;1.94513;-0.88513;-12.13073;35.96494;4.47845;992.07837;-26.97119;76.61041;0.79362;0;0
510;4.17472;1.60317;1.41154;-13.71764;54.76375;4.11224;992.12512;-19.99077;71.31882;0.699;0;0
511;6.59355;2.74701;1.59419;-6.21032;33.76767;2.22015;992.12933;-22.04564;76.40787;0.78217;0;0
512;8.60815;3.78486;1.86428;-19.57701;43.16708;3.62396;992.11298;-23.2542;77.78008;0.80553;0;0
513;10.19516;4.20287;3.88187;-16.22008;32.73008;1.36566;992.17291;-21.06967;69.15533;0.66795;0;0
514;9.51304;4.07471;4.94846;1.78528;17.83751;-1.74713;992.16699;-20.80643;62.51762;0.56862;0;0
515;10.6473;4.19029;4.62148;-9.56725;27.11485;-6.75201;992.1795;-19.85025;66.53667;0.6255;0;0
516;11.79953;5.61261;6.3576;-17.9901;28.27451;0.93841;992.17908;-22.72144;61.68416;0.56248;0;0
517;11.74443;5.06704;6.76184;-19.33287;33.27939;-0.8316;992.23053;-20.38437;59.37989;0.52255;0;0
518;8.9561;3.89804;5.5102;-17.01353;21.19444;-3.94439;992.17609;-20.33965;58.39827;0.50866;0;0
519;6.90557;3.21413;4.97122;13.80919;-18.05113;-2.11334;992.20374;-20.69365;54.25043;0.45345;0;0
520;6.88101;3.25007;4.42086;5.38635;-22.93394;3.74603;992.18842;-21.6718;57.2804;0.49768;0;1
521;8.61175;3.96631;4.79754;0.99182;-4.56237;8.32366;992.17249;-21.91728;60.87812;0.54851;0;0
522;10.86709;4.59273;5.99469;6.30187;-1.69372;0.20599;992.21118;-20.30734;61.11726;0.547;0;0
523;10.93476;5.09039;6.45641;15.3961;-11.76452;-2.11334;992.24133;-21.84401;59.44033;0.52807;0;0
524;11.0174;4.89815;5.75933;15.33507;-12.68004;-0.77057;992.22815;-21.50433;62.40176;0.56898;0;0
525;10.51615;4.69154;5.48325;13.44298;-15.9149;-3.76129;992.20227;-21.5829;62.46191;0.57008;0;0
526;9.69929;5.05087;5.15327;20.09581;-34.71371;4.11224;992.18909;-24.69621;62.01811;0.57372;0;0
527;8.80458;4.05375;3.40338;29.37314;-52.29182;2.6474;992.15021;-23.24094;68.86619;0.66871;0;0
528;6.14081;2.73803;1.63731;22.78135;-54.73323;-3.82232;992.11066;-23.30754;75.07067;0.7634;0;0
529;4.02919;1.75109;0.45873;17.89854;-37.52133;-10.53619;992.09003;-23.35527;83.5047;0.89615;0;0
530;4.37295;1.99064;-0.10001;12.34435;-29.6478;-5.40924;992.08984;-24.47021;88.68985;0.97919;0;0
531;6.24441;3.0177;-1.36243;4.83703;-18.11217;-5.47027;992.09216;-25.27467;77.69189;0.80724;0;0
532;8.08893;4.27353;-1.41034;-1.08337;-3.89862;-5.40924;992.08136;-27.49548;80.10967;0.84764;0;0
533;8.96927;5.01793;-0.47371;-12.2528;-0.41962;0.20599;992.11426;-29.19118;86.97677;0.95396;0;0
534;8.50874;4.80653;-1.4301;26.26035;-8.9035;2.58636;992.1759;-29.12128;80.45922;0.8552;1;0
535;8.43149;4.39091;-1.37441;-0.35095;-4.69207;1.24359;992.10089;-27.20277;80.74171;0.85691;0;0
536;8.83213;4.1849;-1.77745;0.07629;-1.21307;0.63324;992.09302;-24.91553;78.62135;0.82107;0;0
537;8.24524;4.22023;-1.20972;-3.0365;-0.84686;-0.34332;992.09491;-26.85846;81.65328;0.8705;0;0
538;8.54288;4.32504;-1.89063;-10.1776;4.70733;0.69427;992.07495;-26.3038;77.52097;0.80629;0;0
539;9.20762;4.54901;-1.93016;-7.24792;6.72149;-2.60162;992.10748;-25.80557;78.16074;0.81529;0;0
540;7.65834;4.41966;-1.92057;-12.55797;13.49639;10.52093;992.07855;-29.23877;75.9216;0.78774;0;0
541;5.97971;3.03926;-0.95759;-12.4359;23.68925;8.50677;992.11212;-26.6506;80.90189;0.85867;0;0
542;3.74773;1.8014;0.85399;-20.4315;36.44559;5.69915;992.08368;-25.11021;77.16329;0.79882;0;0
543;5.21436;2.31224;1.50735;-20.30943;45.96706;2.89154;992.11151;-23.07372;73.87659;0.74451;0;0
544;8.9555;4.28312;2.1218;-5.53894;34.91971;7.95745;992.09558;-24.95647;76.67089;0.79098;0;0
545;9.98316;4.43882;2.84882;-18.05113;20.14921;1.48773;992.14978;-23.14977;74.07322;0.74769;0;0
546;9.35434;3.91242;3.47764;-12.4359;23.262;3.44085;992.15466;-21.40671;69.60653;0.67557;0;0
547;7.9973;4.31905;3.90762;-4.62341;19.72197;6.61468;992.16168;-25.88434;63.95905;0.60503;0;0
548;11.13838;3.76809;4.59872;-11.2152;33.33279;6.43157;992.14868;-17.36418;67.56566;0.63577;0;0
549;12.6601;5.10656;6.22405;-9.68932;16.05986;-13.95415;992.14594;-19.8992;63.82001;0.58515;0;0
550;11.36355;5.43235;5.64195;-8.16345;22.52958;-12.36724;992.2384;-23.17963;63.59582;0.5912;0;0
551;8.5806;4.27473;4.88737;-14.57213;9.77325;3.8681;992.20947;-23.40729;60.33485;0.5458;0;0
552;6.52828;3.0183;3.66149;16.55577;-17.99773;-0.89264;992.18591;-21.96165;60.71341;0.54632;0;1
553;6.56541;3.32253;3.88068;2.09045;-5.66864;-3.76129;992.20032;-23.5405;59.41356;0.53351;0;0
554;9.537;4.39091;4.42145;-2.12097;-5.79071;3.01361;992.19012;-22.67039;65.12705;0.61189;0;0
555;10.95692;5.12692;5.48445;0.68664;-6.88934;0.63324;992.20801;-22.70569;63.4099;0.58708;0;0
556;11.15754;5.79945;5.95995;10.08605;7.39288;-4.92096;992.22076;-24.63005;61.8905;0.57171;0;0
557;11.24797;6.13243;5.88809;11.42882;1.22833;3.80706;992.276;-25.78162;62.36885;0.58239;0;0
558;10.47243;5.088;5.69226;21.49961;-22.69743;6.67571;992.21503;-23.11592;61.47385;0.56078;0;0
559;9.17049;4.37115;4.61609;23.57481;-40.58072;4.84466;992.20905;-23.06226;63.281;0.58632;0;0
560;7.66613;3.42314;2.29068;22.65928;-52.05531;9.97161;992.19122;-23.16299;73.3636;0.73678;0;0
561;5.42217;2.02298;1.52891;11.85607;-52.5436;0.75531;992.15424;-19.75281;74.25288;0.74458;0;0
562;4.70113;1.82955;0.53898;18.99718;-41.2521;0.99945;992.15424;-21.13846;83.45961;0.89376;0;0
563;5.12034;2.18947;-0.36651;11.12365;-36.85757;-1.8692;992.12256;-23.09879;85.90582;0.93433;0;0
564;6.6235;2.94524;-1.54808;5.26428;-20.01188;-3.70025;992.11426;-23.41241;76.84469;0.79115;0;0
565;8.3189;3.85552;-1.11869;-1.02234;-0.35858;-3.39508;992.12402;-24.67078;82.34106;0.87889;0;0
566;9.27829;4.12921;-1.33907;0.13733;-3.10516;-3.88336;992.12152;-23.77234;81.7876;0.86928;0;0
567;8.70816;4.01362;0.06108;-4.31823;-7.56072;-1.74713;992.14978;-24.74461;89.59809;0.99363;0;0
568;8.65247;4.14597;-1.74451;-0.47302;-2.86102;0.26703;992.10028;-25.16013;78.60087;0.82111;1;0
569;8.56324;4.09627;-0.72224;2.33459;2.75421;-0.95367;992.07196;-25.4854;85.179;0.92413;0;0
570;8.48179;4.15436;-1.20732;-8.16345;3.05938;-0.46539;992.1098;-25.86919;81.89879;0.8732;0;0
571;8.1075;3.88187;-1.3253;-9.50622;13.37432;-0.58746;992.11749;-25.29208;80.71621;0.85414;0;0
572;9.61246;4.72867;-0.73362;-4.4403;11.97051;1.24359;992.11981;-26.1282;85.63569;0.93168;0;0
573;10.703;5.20777;-1.38758;3.49426;-2.86102;-1.01471;992.11981;-25.75883;82.61314;0.88421;0;0
574;6.45701;3.55369;-0.85878;5.14221;-2.25067;3.01361;992.1712;-28.61502;82.42415;0.88426;0;0
575;3.56387;1.67085;-1.38878;-8.9569;32.23417;3.62396;992.10852;-23.59732;68.71001;0.66727;0;0
576;4.74544;1.56185;1.97447;-10.36071;54.38991;6.91986;992.13428;-16.9026;67.40889;0.63244;0;0
577;8.44825;3.40697;1.2211;-22.62877;23.0789;-4.73785;992.14447;-21.7583;81.77554;0.86714;0;0
578;8.76685;4.46577;2.12299;-22.99498;20.21025;3.25775;992.1283;-26.33923;76.38723;0.78908;0;0
579;9.24655;4.45559;2.69851;-7.18688;18.07402;-8.09478;992.19543;-24.82381;73.73067;0.74573;0;0
580;9.83104;4.65921;3.25426;-12.4359;6.59942;-4.24957;992.14636;-24.22388;71.6845;0.71342;0;0
581;9.22619;4.63585;3.59501;-3.76892;8.06426;1.36566;992.18182;-25.08806;68.71146;0.67119;0;0
582;9.74181;4.8233;4.17831;3.98254;12.09258;1.4267;992.19653;-24.46674;66.78526;0.64122;0;0
583;10.65748;4.86701;3.80462;-5.78308;27.22928;-11.45171;992.2254;-23.27213;70.35393;0.69115;0;0
584;11.04016;5.89707;4.31905;-14.32799;31.01346;-8.03375;992.20673;-26.4474;68.63395;0.6738;0;0
585;9.60108;5.18741;5.34431;-4.80651;19.53886;-1.19781;992.23517;-25.27132;60.89808;0.56018;0;0
586;7.48827;3.96152;3.63214;-5.59997;-9.02557;-1.50299;992.21906;-25.4541;64.12453;0.60595;0;1
587;6.5187;3.48722;3.90463;2.02942;-4.26483;-0.95367;992.1593;-24.65161;59.07883;0.53297;0;0
588;8.77344;4.69394;3.78306;-3.58581;-3.04413;1.6098;992.20844;-26.16444;66.67456;0.64462;0;0
589;11.66059;6.32466;5.25688;3.79944;0.1297;3.37982;992.26984;-26.31102;65.73299;0.63159;0;0
590;11.00603;6.145;5.64674;7.09533;5.37872;-2.23541;992.28448;-26.41653;62.8395;0.59118;0;0