Time;Ax;Ay;Az;Gx;Gy;Gz;BAR;P;R;UP;DOWN;prob
0;9.34776;2.38783;1.79147;3.43;-3.64;6.72;992.10229;0;0;0;0;
1;9.68067;1.91362;2.07409;-6.93;-0.56;8.05;992.10474;0;0;0;0;
2;9.89143;2.20102;2.96024;-3.22;-3.5;7.91;992.10718;0;0;0;0;
3;9.67109;1.825;2.70637;7.77;1.05;2.8;992.13379;0;0;0;0;
4;9.80761;2.03577;2.63692;12.25;0.14;4.48;992.14258;0;0;0;0;
5;10.02555;1.6813;2.29203;6.58;4.62;7.63;992.16284;0;0;0;0;
6;9.62558;1.32205;2.19384;9.24;7.77;-6.86;992.16235;0;0;0;0;
7;9.6663;2.22018;2.32796;12.80999;-2.17;-3.01;992.15283;0;0;0;0;
8;9.9561;1.91602;2.09085;-4.34;1.4;1.19;992.18164;0;0;0;0;
9;9.91538;1.68849;2.53154;-8.82;-1.33;-1.05;992.18726;0;0;0;0;
10;9.67827;2.09085;2.54351;-6.16;-0.84;-5.46;992.16602;0;0;0;0;
11;9.68785;2.46687;2.54351;-2.87;-2.66;-3.78;992.17017;0;0;0;0;
12;9.61121;2.13396;2.36388;-5.04;-5.67;-0.98;992.17529;0;0;0;0;
13;9.63756;2.38065;2.22497;-4.83;-0.56;-3.36;992.18311;0;0;0;0;
14;9.64714;2.26569;2.4549;-9.66;-3.71;-1.26;992.17944;0;0;0;0;
15;9.84593;2.50759;1.9735;-1.54;-1.47;-3.78;992.20117;0;0;0;0;
16;9.61121;2.47645;2.19623;-2.45;3.22;-1.19;992.20288;0;0;0;0;
17;9.70462;2.20102;2.31598;-5.53;9.52;2.8;992.2002;0;0;0;0;
18;9.74533;2.08127;2.17228;-6.23;4.62;-1.89;992.20947;0;0;1;0;
19;9.75012;2.05253;2.90516;-2.38;15.39999;-2.87;992.23413;0;0;1;0;
20;9.45075;2.21779;2.62255;1.47;8.68;-4.9;992.23193;0;0;1;0;
21;7.87482;2.18665;1.9256;-0.7;11.27;-2.52;992.24292;0;0;1;0;
22;6.67971;1.24541;2.10043;-8.05;8.89;-0.56;992.27515;0;0;1;0;
23;5.92528;1.90644;2.23216;-6.72;13.79;-11.76;992.2854;0;0;1;0;
24;7.15871;2.79499;3.11592;-3.64;29.81999;13.92999;992.28516;0;0;1;0;
25;9.10107;0.83347;4.32541;-19.80999;10.36;15.88999;992.29541;0;0;1;0;
26;10.50695;1.71004;5.47022;-19.73999;-4.2;-4.97;992.31616;0;0;1;0;
27;10.0495;1.99266;4.88824;-28.27999;-16.58999;-5.25;992.33716;0;0;1;0;
28;10.15249;2.47166;5.33371;-9.24;0.28;-4.9;992.3313;0;0;1;0;
29;10.04232;2.36388;4.92177;7.07;8.19;4.97;992.3501;0;0;1;0;
30;10.74885;1.52323;5.09181;7.56;11.83;11.83;992.34497;0;0;1;0;
31;10.68658;1.79866;5.89654;9.31;1.26;6.02;992.34595;0;0;1;0;
32;10.05908;1.28373;4.96727;4.34;1.96;3.36;992.36646;0;0;1;0;
33;9.43398;1.18553;4.69424;-1.19;0;0.35;992.37866;0;0;1;0;
34;9.15856;1.41067;4.49066;3.15;3.85;-1.05;992.36279;0;0;0;1;
35;10.68418;1.51365;5.36484;-3.08;-3.85;10.64;992.35205;0;0;0;1;
36;11.64459;1.08494;5.99952;-5.39;-7.21;2.1;992.36719;0;0;0;1;
37;11.00272;1.13524;5.50615;-5.25;-15.95999;-6.44;992.35645;0;0;0;1;
38;10.22673;1.48012;5.6259;3.15;-0.77;-12.95;992.37378;0;0;0;1;
39;10.03034;1.97829;4.86668;3.22;-7.98;-6.3;992.36499;0;0;0;1;
40;9.89862;1.8298;4.67508;9.66;-1.47;2.1;992.39282;0;0;0;1;
41;8.92624;1.54958;3.7027;3.08;-16.58999;1.68;992.39624;0;0;0;1;
42;6.62462;1.42264;2.4525;12.53;-28.90999;-10.01;992.3938;0;0;0;1;
43;6.19592;0.77599;0.74485;-11.97;-32.61999;-16.79999;992.37402;0;0;0;1;
44;6.98627;1.32924;1.66214;14.49;-3.64;-24.42999;992.37012;0;0;0;1;
45;8.67955;2.72553;2.23695;10.08;-14.7;4.69;992.3623;0;0;0;1;
46;9.99442;2.4549;2.46927;0.49;-12.53;3.15;992.36353;0;0;0;1;
47;9.15376;2.45011;2.09325;3.01;-13.79;-0.21;992.35034;0;0;0;1;
48;8.9933;2.32317;0.8646;-11.41;-2.87;3.99;992.35034;0;0;0;1;
49;9.83874;2.39981;1.93039;-5.39;15.67999;4.34;992.34644;0;0;0;1;
50;10.32732;2.33035;2.33993;-8.19;-0.21;6.02;992.32617;0;0;0;1;
51;10.30337;2.28006;1.85614;-5.18;5.25;-3.92;992.32178;0;0;0;1;
52;9.72617;2.20821;1.94955;-7.21;10.01;-6.79;992.3252;0;0;0;1;
53;8.49753;2.34472;1.83698;-7.42;19.52999;-6.23;992.31152;0;0;0;1;
54;5.90372;1.37474;1.80345;-6.44;8.96;-8.61;992.31543;0;0;0;1;
55;5.44148;0.85263;2.68482;-10.92;11.97;-3.01;992.31567;0;0;0;1;
56;6.37794;2.10762;2.61776;-5.67;27.85999;4.2;992.31421;0;0;0;1;
57;9.15137;1.97589;3.53984;-21.76999;51.72998;27.85999;992.30444;0;0;0;1;
58;10.85423;1.53521;7.03417;-1.75;38.35999;15.81999;992.32202;0;0;0;1;
59;9.99442;2.17228;6.43542;-3.85;0.91;-0.56;992.36182;0;0;0;1;
60;9.07952;1.94236;6.48332;7.56;-6.23;7.14;992.37061;0;0;0;1;
61;10.03513;1.84896;5.09181;24.49999;-13.58;14.35;992.37622;0;0;0;1;
62;11.156;0.54127;5.08463;-12.6;-12.80999;14.49;992.3894;0;0;0;1;
63;10.13093;1.75076;5.5325;4.9;0.7;-12.46;992.41577;0;0;0;1;
64;10.06866;1.49449;5.66183;-4.34;0.77;2.94;992.40308;0;0;0;1;
65;11.34042;1.72681;6.50487;5.88;8.47;4.41;992.40747;0;0;0;1;
66;12.14035;2.213;7.42696;14.97999;-18.54999;-1.96;992.38965;0;0;0;1;
67;10.48779;1.75794;3.88472;11.89999;-32.61999;-9.87;992.39551;0;0;0;1;
68;9.54894;1.90404;3.65001;7.14;-2.17;-10.43;992.39233;0;0;0;1;
69;9.33339;1.92081;4.24876;6.51;-3.01;-1.75;992.38916;0;0;0;1;
70;9.80761;2.24413;4.17452;13.09;4.83;6.16;992.39526;0;0;0;1;
71;9.58487;1.75555;3.78653;-8.19;-10.22;10.57;992.38184;0;0;0;1;
72;7.65927;1.56874;3.4632;-7.63;-20.99999;1.54;992.35229;0;0;0;1;
73;6.46655;0.84544;1.81063;-20.15999;-33.80999;-2.03;992.34204;0;0;0;1;
74;6.45218;0.61313;1.76273;-5.46;-11.83;-19.45999;992.3335;0;0;0;1;
75;7.67604;2.33754;2.39502;15.12;-13.50999;-15.12;992.34546;0;0;0;1;
76;9.68306;2.82373;2.07169;-5.39;-17.84999;15.88999;992.33398;0;0;0;1;
77;9.7118;1.55916;2.53154;9.1;-1.89;1.12;992.32153;0;0;0;1;
78;9.97047;2.09564;1.59269;3.92;-6.79;7.35;992.31567;0;0;1;0;
79;9.86988;1.71244;1.83698;-1.61;-2.73;0.07;992.33496;0;0;1;0;
80;9.96807;2.27527;2.14354;-2.38;6.3;-1.61;992.32129;0;0;1;0;
81;10.26745;1.99984;1.61664;-6.65;9.24;-4.76;992.33301;0;0;1;0;
82;9.44356;1.87291;2.26569;-7.98;12.04;-6.65;992.34814;0;0;1;0;
83;7.63772;1.74357;1.9256;-4.34;12.6;-5.25;992.34668;0;0;1;0;
84;5.56124;1.37235;1.54958;8.61;-6.79;-5.6;992.35229;0;0;1;0;
85;6.70606;1.17835;2.36388;-3.01;9.38;-10.01;992.35181;0;0;1;0;
86;7.9371;2.94827;3.19496;1.61;37.37999;-0.91;992.34839;0;0;1;0;
87;10.03513;2.5004;4.29188;-5.81;31.14999;14.90999;992.36328;0;0;1;0;
88;11.39071;1.64538;4.64155;-12.67;-11.76;8.47;992.37036;0;0;1;0;
89;10.19799;2.05972;3.63324;-23.37999;-30.37999;-14.49;992.37036;0;0;1;0;
90;9.57768;3.1734;4.49785;-8.05;-10.36;1.82;992.37378;0;0;1;0;
91;10.50935;2.01421;4.2799;1.4;3.43;15.53999;992.37183;0;0;1;0;
92;10.55485;1.61664;4.0883;-5.11;-1.96;12.6;992.37305;0;0;1;0;
93;10.60036;1.5376;3.3195;-7.49;5.6;9.03;992.35742;0;0;0;1;
94;10.44468;1.30289;4.37091;-5.25;12.88;7.7;992.34644;0;0;0;1;
95;10.7704;1.6334;4.25835;-0.35;10.99;0.21;992.36401;0;0;0;1;
96;10.483;1.5376;4.1841;2.94;2.38;-2.94;992.33618;0;0;0;1;
97;10.81591;1.72681;4.12662;-1.75;3.36;-0.35;992.35254;0;0;0;1;
98;11.77392;1.14242;6.77072;-13.85999;22.74999;6.44;992.37134;0;0;0;1;
99;11.2063;2.692;5.94683;14.7;-2.66;-5.11;992.39502;0;0;0;1;
100;9.82437;0.76641;3.88233;7.0;-13.09;-8.47;992.39819;0;0;0;1;
101;9.86988;1.78189;4.05477;7.14;5.11;-9.94;992.40967;0;0;0;1;
102;9.88425;1.55197;4.50264;-9.8;2.94;-4.76;992.41089;0;0;0;1;
103;9.25196;1.98787;5.00799;4.34;-18.19999;-5.95;992.41333;0;0;0;1;
104;7.44133;1.41067;2.73032;-3.92;-36.25999;-11.76;992.40454;0;0;0;1;
105;5.79355;1.11368;1.77471;-0.91;-33.66999;-19.31999;992.37476;0;0;0;1;
106;6.1073;1.76513;1.19272;18.47999;-19.80999;-26.24999;992.35889;0;0;0;1;
107;7.15392;3.42248;0.59157;14.90999;-20.57999;-15.18999;992.35864;0;0;0;1;
108;10.4854;3.69791;1.65735;7.07;9.66;17.42999;992.35376;0;0;0;1;
109;9.5226;2.24892;2.94827;-8.26;-15.12;14.0;992.35815;0;0;1;0;
110;9.68306;2.96503;1.03225;-5.95;-4.27;-3.01;992.35522;0;0;1;0;
111;9.52978;2.99617;2.22976;-8.96;7.28;3.92;992.34473;0;0;1;0;
112;10.09261;2.38783;2.41897;-1.61;-4.83;4.2;992.34619;0;0;1;0;
113;11.02428;3.08479;2.38783;8.33;-4.55;-6.37;992.35791;0;0;1;0;
114;9.23999;3.33626;1.69807;-1.12;-25.82999;-9.8;992.34619;0;0;1;0;
115;8.31311;1.50886;0.66342;-8.96;-3.43;5.11;992.34692;0;0;1;0;
116;11.0123;3.76976;2.81894;-5.46;19.24999;1.05;992.35791;0;0;1;0;
117;8.99569;1.97829;1.27176;-10.71;-12.80999;3.78;992.37476;0;0;1;0;
118;2.02379;0.74006;0.22992;-15.25999;43.67999;8.89;992.36377;0;0;1;0;
119;7.05333;1.88967;2.76146;4.41;87.56996;74.89997;992.35327;0;0;1;0;
120;31.6454;2.12917;12.6936;-10.85;9.45;23.09999;992.37622;0;0;1;0;
121;5.34329;2.44532;0.97477;43.39999;-192.28993;-125.78996;992.36401;0;0;1;0;
122;-10.35606;-4.87626;0.29459;9.52;70.34997;12.25;992.34717;0;0;1;0;
123;12.19065;2.2609;2.08367;-61.10997;74.75997;139.29994;992.31836;0;0;1;0;
124;25.55246;1.68849;10.7704;-7.14;-3.92;-50.25998;992.3396;0;0;1;0;
125;4.905;-0.19879;0.84784;-0.35;-87.70997;-99.53996;992.33667;0;0;1;0;
126;-1.80824;-0.15089;-0.5269;-18.33999;13.44;0.98;992.32983;0;0;1;0;
127;9.01725;1.23583;3.72186;-18.33999;31.56999;77.34998;992.32471;0;0;1;0;
128;18.0824;1.22865;4.86428;-24.56999;9.66;42.97998;992.29492;0;0;1;0;
129;12.63852;1.15679;3.73863;29.46999;-12.18;-55.22998;992.28882;0;0;1;0;
130;7.91315;1.14242;2.76625;61.45998;3.43;-65.51997;992.28784;0;0;1;0;
131;-2.04056;0.30656;-0.27543;-28.69999;-17.77999;16.44999;992.29492;0;0;1;0;
132;9.53697;-1.62143;1.90165;-43.60998;57.74998;161.97995;992.2876;0;0;1;0;
133;33.82007;0.06467;16.28853;9.87;50.53998;-10.08;992.29761;0;0;1;0;
134;6.47613;0.44308;2.43573;75.03997;-111.22996;-150.28993;992.30859;0;0;1;0;
135;-8.19815;-3.39853;-1.41785;56.20998;38.56998;6.44;992.30542;0;0;1;0;
136;9.1346;2.26329;1.25499;-43.95998;29.88999;96.94997;992.30908;0;0;1;0;
137;25.21477;4.89542;7.94428;39.89999;49.62998;31.56999;992.28931;0;0;1;0;
138;9.15137;2.2106;0.93885;43.11998;-57.53998;-55.92998;992.3064;0;0;1;0;
139;3.92065;1.11847;-0.66821;8.47;15.53999;12.25;992.2854;0;0;1;0;
140;10.66023;2.10762;3.05365;-27.01999;11.97;28.69999;992.26904;0;0;1;0;
141;12.87323;2.68242;2.28006;-31.21999;-5.46;20.92999;992.26709;0;0;1;0;
142;14.23121;2.6441;4.61999;38.98999;5.18;-36.46999;992.27246;0;0;1;0;
143;2.76625;1.85375;0.23471;39.47998;-16.16999;-20.01999;992.2644;0;0;1;0;
144;-1.66214;-1.3939;0.74485;23.58999;43.60998;48.36998;992.25586;0;0;1;0;
145;14.75093;-1.70286;4.7134;-97.85996;80.91997;172.47993;992.23535;0;0;1;0;
146;30.78558;-4.65592;18.0824;28.55999;8.4;52.49998;992.24658;0;0;1;0;
147;4.65113;-2.7423;2.95785;50.39998;-127.11996;-184.30994;992.25684;0;0;1;0;
148;-5.17324;-0.51972;-1.66454;-10.78;20.43999;-0.49;992.2334;0;0;1;0;
149;4.43797;-1.88967;2.2106;-51.44998;40.80998;73.14997;992.22168;0;0;1;0;
150;18.24526;1.03944;7.597;-0.14;38.77999;81.89997;992.25732;0;0;1;0;
151;13.11273;1.25739;5.49657;35.55999;-26.03999;-48.64998;992.26294;0;0;1;0;
152;5.92767;-0.83107;1.9256;-19.10999;-35.41999;-40.87998;992.25244;0;0;1;0;
153;5.89414;1.33403;2.00224;-30.65999;13.16;2.87;992.25684;0;0;1;0;
154;10.66502;1.91841;4.97446;-32.96999;30.44999;42.97998;992.27319;0;0;1;0;
155;17.00464;0.64426;8.76338;51.79998;3.78;-32.05999;992.26733;0;0;1;0;
156;8.22929;1.4442;3.10634;57.53998;-70.62997;-64.88998;992.27515;0;0;1;0;
157;-4.73735;-2.019;0.34249;-34.71999;20.29999;12.80999;992.28589;0;0;1;0;
158;4.68466;-0.83826;0.85981;-97.15997;34.43999;119.83996;992.2644;0;0;1;0;
159;26.51287;-3.39853;11.04104;-123.33995;88.54996;136.07996;992.2959;0;0;1;0;
160;14.29587;-2.96503;8.69871;91.41997;-43.32998;-179.75993;992.32373;0;0;1;0;
161;1.31487;0.49337;-0.56283;56.20998;-66.84998;-103.66996;992.32422;0;0;1;0;
162;-2.31359;-0.54606;-0.72809;-5.74;4.13;35.13999;992.33032;0;0;1;0;
163;11.73799;0.17723;6.67731;-82.24997;61.73998;119.34996;992.33911;0;0;1;0;
164;17.47646;1.33163;9.8124;74.96997;2.38;-19.94999;992.34131;0;0;1;0;
165;6.73959;0.13652;0.95082;16.44999;-52.21998;-45.21999;992.35132;0;0;1;0;
166;5.94923;1.16398;1.08973;5.18;18.61999;1.89;992.36499;0;0;1;0;
167;11.2063;1.47533;6.19113;0.77;23.44999;30.86999;992.39258;0;0;1;0;
168;10.97159;1.52563;5.26425;-3.64;-14.49;-3.78;992.39282;0;0;1;0;
169;7.9371;0.479;2.49801;-1.54;-7.49;-2.31;992.40552;0;0;1;0;
170;8.95977;0.92927;3.66438;-15.04999;17.98999;18.47999;992.39331;0;0;1;0;
171;10.47582;0.99393;4.48587;-16.72999;6.79;20.71999;992.40332;0;0;1;0;
172;14.36772;0.51732;6.39231;-12.11;3.85;-13.64999;992.41528;0;0;1;0;
173;12.34154;2.00942;4.96727;51.51998;-40.10999;-82.03997;992.41089;0;0;1;0;
174;1.21188;0.27064;-0.0982;19.38999;-20.92999;-12.46;992.41406;0;0;1;0;
175;1.22386;-0.77599;0.92448;-18.75999;14.63;29.81999;992.40942;0;0;1;0;
176;18.39614;2.46208;7.62335;-37.58999;50.88998;62.22998;992.41553;0;0;1;0;
177;14.15217;4.35654;5.74086;65.65997;-16.93999;-27.78999;992.4165;0;0;1;0;
178;5.89893;-0.74485;1.1999;-15.32999;-48.57998;-9.38;992.41821;0;0;1;0;
179;7.66646;1.52323;1.65735;-7.42;19.03999;9.87;992.41309;0;0;1;0;
180;11.39071;2.62015;4.46671;8.96;17.70999;14.90999;992.40234;0;0;1;0;
181;10.30098;1.42025;3.68594;-3.01;-5.88;12.25;992.42651;0;0;1;0;
182;9.35734;0.63947;2.87402;5.32;1.12;2.17;992.43018;0;0;1;0;
183;9.21604;0.90292;3.1279;0.49;2.87;2.03;992.42041;0;0;1;0;
184;9.8124;1.26936;3.29555;-0.7;4.41;5.32;992.42969;0;0;1;0;
185;9.67588;0.76641;3.32908;-0.56;0.56;3.15;992.45508;0;0;1;0;
186;9.42919;0.9149;3.42488;-3.64;0.35;-0.7;992.4502;0;0;1;0;
187;9.52499;1.03225;3.559;-2.45;1.4;1.61;992.44482;0;0;1;0;
188;9.62558;0.86939;3.51828;-1.68;1.61;0.91;992.44312;0;0;1;0;
189;9.73096;1.06818;3.69073;-1.12;-0.14;-0.56;992.448;0;0;1;0;
190;9.55134;0.75922;3.67157;-1.68;-0.07;0.28;992.44531;0;0;1;0;
191;9.51302;0.7233;3.4153;0.98;0.63;-2.1;992.4519;0;0;1;0;
192;9.41482;0.98435;3.63564;-1.68;2.17;0.49;992.45605;0;0;1;0;
193;9.46512;0.90053;3.75539;-1.89;0;0.14;992.44995;0;0;1;0;
194;9.83874;0.92927;3.56618;-1.33;0.77;-0.35;992.45166;0;0;1;0;
195;10.16686;0.77359;3.65241;0.98;2.1;-6.02;992.45459;0;0;1;0;
196;9.23759;1.10171;2.62734;-6.72;4.13;-8.26;992.46631;0;0;1;0;
197;7.6952;0.79515;2.28006;-2.87;32.19999;-9.52;992.44702;0;0;1;0;
198;4.33259;1.11368;2.39981;-10.5;35.48999;-23.37999;992.45312;0;0;1;0;
199;3.90628;1.47054;3.95657;-3.15;22.81999;13.3;992.45801;0;0;1;0;
200;8.54304;1.38432;5.75044;6.37;38.14999;27.92999;992.47583;0;0;1;0;
201;9.92257;0.82628;6.37075;7.98;22.32999;9.52;992.49365;0;0;1;0;
202;8.94779;0.10059;7.10602;-14.35;8.19;-0.63;992.50488;0;0;1;0;
203;9.11065;1.18314;8.00895;-3.85;7.28;4.76;992.51318;0;0;1;0;
204;8.59812;0.91011;8.13349;-9.59;-1.33;14.13999;992.52417;0;0;1;0;
205;9.29028;0.49577;6.37794;-9.45;0.49;18.12999;992.5144;0;0;1;0;
206;9.32621;0.4814;6.9719;3.36;4.9;15.18999;992.52002;0;0;1;0;
207;9.45314;0.39997;7.4533;14.06999;5.6;6.16;992.52466;0;0;1;0;
208;8.8975;0.11736;6.99106;6.65;-0.84;-3.64;992.54688;0;0;1;0;
209;8.75859;0.59875;6.86652;2.8;1.33;-3.71;992.52393;0;0;1;0;
210;8.34185;0.6251;6.11209;0.42;0.42;-1.54;992.52563;0;0;0;1;
211;9.2328;0.25627;7.29762;-14.13999;-5.53;4.76;992.52905;0;0;0;1;
212;10.3872;0.27782;8.30593;-4.13;-5.81;-3.64;992.53003;0;0;0;1;
213;9.2328;0.60354;7.28565;2.52;-16.93999;-14.76999;992.52368;0;0;0;1;
214;8.47118;0.68977;6.45458;2.66;-15.67999;-12.32;992.53296;0;0;0;1;
215;8.55022;0.99154;5.54926;15.81999;-11.83;-7.98;992.49463;0;0;0;1;
216;8.02332;0.57001;6.33243;-7.49;-3.22;-6.23;992.48218;0;0;0;1;
217;7.58742;1.01788;4.67987;-4.97;-31.00999;-13.3;992.47681;0;0;0;1;
218;6.51924;0.90053;3.42248;13.23;-35.13999;-18.47999;992.47485;0;0;0;1;
219;6.26777;1.00351;2.4022;-9.87;-28.83999;-15.67999;992.45264;0;0;0;1;
220;7.62095;1.51365;3.17101;9.66;-18.75999;-4.06;992.44824;0;0;0;1;
221;8.71308;1.79866;3.28597;-0.7;-20.99999;-2.8;992.44751;0;0;0;1;
222;9.23759;2.22497;3.03688;2.73;-8.19;5.32;992.43042;0;0;0;1;
223;9.73336;1.21667;3.01293;-10.22;-5.74;10.29;992.43677;0;0;0;1;
224;9.56331;1.1041;3.54463;-4.27;-2.38;6.44;992.41333;0;0;0;1;
225;9.65432;1.25978;3.28118;-2.52;-6.16;2.59;992.39502;0;0;0;1;
226;9.75252;1.19751;2.92671;-0.42;-2.38;2.17;992.40356;0;0;0;1;
227;9.63995;1.22625;3.07281;3.36;5.11;0.21;992.42407;0;0;0;1;
228;9.86748;1.2502;3.72905;12.74;-0.21;-2.24;992.43823;0;0;0;1;
229;9.99681;1.47054;2.80457;4.55;-2.45;-7.77;992.42358;0;0;0;1;
230;8.23647;1.39869;2.02379;0.28;10.78;-1.61;992.4082;0;0;0;1;
231;8.01613;0.78317;2.43813;-6.44;28.06999;14.41999;992.39453;0;0;0;1;
232;6.69168;0.82628;2.18186;2.52;20.92999;11.76;992.38232;0;0;0;1;
233;6.057;0.49337;2.97701;2.59;32.40999;4.2;992.38818;0;0;0;1;
234;7.15153;0.98914;4.49066;13.16;29.81999;6.02;992.396;0;0;0;1;
235;9.49146;0.44308;6.3971;2.45;40.45998;23.93999;992.39258;0;0;0;1;
236;9.63756;1.19751;5.70015;5.46;13.3;3.78;992.41187;0;0;0;1;
237;8.44005;0.00479;5.73128;-10.36;11.97;17.00999;992.38721;0;0;0;1;
238;9.10586;-0.22513;7.39343;-3.22;6.79;1.82;992.36548;0;0;0;1;
239;8.7514;0.52211;6.82581;-8.26;-0.49;-7.56;992.38965;0;0;0;1;
240;7.97063;0.17484;7.62095;-0.91;16.30999;-2.38;992.39478;0;0;0;1;
241;9.90341;0.56522;8.55501;-3.36;6.23;6.09;992.41943;0;0;0;1;
242;10.82549;0.20358;9.01485;-6.51;2.8;9.94;992.40967;0;0;0;1;
243;9.06994;0.38081;7.47725;12.95;-1.47;-6.44;992.40869;0;0;0;1;
244;7.3575;0.03353;5.59477;10.36;-3.85;-0.7;992.38965;0;0;0;1;
245;9.22322;-0.01677;6.66773;-7.0;7.28;12.6;992.40869;0;0;0;1;
246;9.48188;-0.37602;7.9371;-3.29;-2.24;3.57;992.41187;0;0;0;1;
247;9.01964;-0.34009;7.66885;-5.04;-10.57;-2.52;992.42896;0;0;0;1;
248;9.19927;0.22992;7.25212;-0.14;-12.32;-3.64;992.42822;0;0;0;1;
249;9.24238;0.05748;6.77791;3.15;-15.60999;-10.99;992.41431;0;0;0;1;
250;8.28916;0.66821;6.06898;4.69;-25.68999;-8.26;992.40332;0;0;0;1;
251;7.57784;0.62031;5.52052;-5.11;-26.73999;-1.61;992.39624;0;0;0;1;
252;6.99346;-0.15807;4.02124;-4.9;-35.62999;-8.47;992.36841;0;0;0;1;
253;6.51206;-0.11257;3.24765;18.82999;-27.36999;-24.98999;992.36548;0;0;0;1;
254;6.94795;1.06818;2.79259;6.09;-31.63999;-16.37999;992.36035;0;0;0;1;
255;8.25324;1.03225;2.63452;6.37;-12.25;6.72;992.33008;0;0;0;1;
256;9.4244;0.79515;3.43685;3.57;-22.67999;5.67;992.34229;0;0;0;1;
257;9.71659;1.19032;2.25371;5.6;-10.43;4.97;992.33032;0;0;0;1;
258;9.49386;0.99633;2.58902;-5.04;-7.14;0;992.34253;0;0;0;1;
259;10.09261;1.38193;2.84528;-1.96;2.31;2.8;992.33179;0;0;0;1;
260;9.94652;0.673;2.6944;-5.04;4.69;-0.35;992.35107;0;0;0;1;
261;9.86509;1.03225;3.38416;2.8;7.0;-7.14;992.33789;0;0;0;1;
262;9.89383;1.79626;3.54223;10.15;-8.89;-0.7;992.33228;0;0;0;1;
263;9.71899;1.42025;1.5855;3.99;-14.41999;0.14;992.32959;0;0;0;1;
264;9.35974;0.83347;1.90644;-2.1;5.6;-0.07;992.32544;0;0;0;1;
265;9.78366;1.4418;3.29315;-1.4;9.03;0.7;992.32495;0;0;0;1;
266;9.44117;1.23583;2.66326;4.27;3.15;1.54;992.32617;0;0;0;1;
267;7.95147;0.85981;2.28724;11.83;18.40999;4.48;992.32886;0;0;0;1;
268;5.82229;0.2419;2.11959;-3.08;-0.14;-0.91;992.32251;0;0;0;1;
269;5.87498;1.49928;2.96982;28.69999;-1.12;-5.6;992.33472;0;0;0;1;
270;8.00655;1.06818;1.62143;10.5;21.55999;11.48;992.33154;0;0;0;1;
271;10.3369;0.4335;3.8488;-5.04;55.92998;18.75999;992.33301;0;0;0;1;
272;10.74645;0.30896;5.05828;-22.25999;16.93999;-1.47;992.34204;0;0;0;1;
273;9.82198;0.52451;5.73607;-31.35999;11.13;-6.93;992.35596;0;0;0;1;
274;9.59445;1.35079;6.56714;-23.79999;1.96;-3.85;992.35889;0;0;0;1;
275;10.94763;0.60833;6.10491;-15.25999;-2.94;8.61;992.36938;0;0;0;1;
276;10.87578;0.01437;6.40428;-6.79;5.95;-5.32;992.37549;0;0;0;1;
277;10.28661;1.08973;6.94316;24.56999;2.94;-2.52;992.38452;0;0;0;1;
278;9.03641;0.51972;4.11704;6.79;1.12;5.6;992.38965;0;0;0;1;
279;8.21731;0.05748;5.11576;3.57;13.92999;-0.56;992.39624;0;0;0;1;
280;8.28437;0.08143;5.14929;-3.08;-1.68;-1.68;992.37817;0;0;0;1;
281;8.7035;0.53648;5.1948;-6.44;2.1;2.8;992.39209;0;0;0;1;
282;9.21125;0.50295;5.578;-4.06;-0.14;0.42;992.3999;0;0;0;1;
283;8.9454;0.53648;5.49178;-6.93;-3.36;-2.94;992.38354;0;0;0;1;
284;8.8472;0.55564;5.56603;-1.68;1.96;-3.01;992.39722;0;0;0;1;
285;8.4161;0.65624;5.13013;3.64;-0.21;-1.12;992.40674;0;0;0;1;
286;8.24126;0.40476;4.5194;1.26;4.55;1.33;992.38574;0;0;0;1;
287;8.15265;0.08622;5.81511;4.97;21.55999;3.36;992.38037;0;0;0;1;
288;9.27112;0.45026;5.59956;-5.74;-2.94;7.0;992.40479;0;0;0;1;
289;8.91426;-0.03353;5.81511;-0.84;0.21;-4.27;992.39917;0;0;0;1;
290;8.76098;0.46463;5.86061;-4.83;1.61;-1.82;992.38599;0;0;0;1;
291;8.90947;0.37602;6.31806;1.75;4.9;-1.33;992.37549;0;0;0;1;
292;10.98356;0.03832;7.43654;-9.87;15.81999;13.37;992.38037;0;0;0;1;
293;10.97877;0.1437;7.9371;1.19;2.8;-5.53;992.37329;0;0;0;1;
294;9.20406;0.12215;7.12518;4.41;-7.63;-9.73;992.37061;0;0;0;1;
295;8.51429;1.03465;6.69168;13.3;-16.30999;-10.01;992.39746;0;0;0;1;
296;8.38257;0.21795;5.94683;15.18999;-20.22999;0.91;992.40601;0;0;0;1;
297;8.59812;0.67779;4.91937;8.26;-25.19999;7.14;992.3938;0;0;0;1;
298;8.11912;0.34728;4.426;-0.84;-20.71999;4.2;992.38403;0;0;0;1;
299;6.9719;0.42152;3.19017;-24.35999;-32.05999;-7.56;992.3606;0;0;0;1;
300;5.76002;0.17723;1.89446;-37.44999;-22.88999;-17.14999;992.35425;0;0;0;1;
301;6.50248;0.83826;2.49801;-1.89;-34.50999;-20.29999;992.33887;0;0;0;1;
302;9.93694;1.87291;1.22146;-0.77;-12.25;20.01999;992.34595;0;0;0;1;
303;10.29379;0.32572;3.44404;6.86;-0.07;1.4;992.34863;0;0;0;1;
304;9.86269;0.35686;3.02012;-1.26;-12.32;-5.32;992.32935;0;0;0;1;
305;9.39566;0.77359;2.04056;2.03;0.98;-2.66;992.32837;0;0;0;1;
306;9.75012;0.49577;3.33866;-1.12;0.42;6.16;992.3335;0;0;0;1;
307;9.96089;0.35446;2.88121;-4.55;-2.45;0.49;992.33887;0;0;1;0;
308;9.72139;0.60594;3.16622;-3.43;-2.45;0.42;992.33447;0;0;1;0;
309;9.90101;0.62989;2.89318;-2.24;-2.66;3.29;992.3147;0;0;1;0;
310;9.75492;0.6275;2.74469;6.51;-0.98;0.98;992.29492;0;0;1;0;
311;9.94891;0.53648;2.68961;-0.91;-0.63;1.12;992.28809;0;0;1;0;
312;9.93694;0.79515;2.85965;3.71;4.06;-3.08;992.29517;0;0;1;0;
313;9.82437;0.86939;2.77343;10.57;10.08;-4.97;992.30176;0;0;1;0;
314;9.67827;0.64666;2.21779;4.62;10.15;1.05;992.32568;0;0;1;0;
315;8.97174;0.51493;2.41897;2.94;22.18999;-0.63;992.32495;0;0;1;0;
316;7.1156;0.36404;2.11001;-8.05;19.17999;0.98;992.32471;0;0;1;0;
317;5.7217;0.36883;3.39135;-7.56;38.14999;-0.49;992.31641;0;0;1;0;
318;6.91682;0.79275;4.42121;6.09;27.92999;-1.26;992.31079;0;0;1;0;
319;8.00895;0.47661;4.93374;10.29;24.28999;6.37;992.30005;0;0;1;0;
320;9.46751;0.29459;5.08463;-2.1;26.94999;7.42;992.29663;0;0;1;0;
321;9.67109;1.05141;6.09054;-2.66;23.37999;-2.73;992.32178;0;0;1;0;
322;9.18251;0.69935;7.21859;-3.5;-1.19;-5.88;992.35132;0;0;1;0;
323;8.88073;1.13284;5.97557;-3.5;-4.69;-8.61;992.34033;0;0;1;0;
324;9.79084;1.32445;6.57912;-6.93;7.21;4.2;992.32788;0;0;1;0;
325;9.87467;0.39757;7.96584;-5.46;5.04;5.32;992.33789;0;0;1;0;
326;9.36932;0.37123;7.27367;-2.8;-4.97;-2.59;992.34546;0;0;1;0;
327;8.50471;0.80233;6.50248;6.65;1.68;-1.82;992.34741;0;0;1;0;
328;8.25803;0.4335;6.31327;3.64;-0.91;3.78;992.34131;0;0;1;0;
329;8.13588;0.49577;5.6283;2.17;-4.62;1.54;992.34888;0;0;1;0;
330;8.03769;0.49337;5.27623;0.63;-1.54;0.42;992.33472;0;0;0;1;
331;8.17181;0.58438;6.12407;-3.71;2.94;3.78;992.3396;0;0;0;1;
332;8.55022;0.74725;6.00671;-1.47;-0.28;4.97;992.3501;0;0;0;1;
333;8.30832;0.47421;5.89654;-0.98;-1.54;0.07;992.36108;0;0;0;1;
334;7.99458;0.35686;5.94204;0.56;0.91;3.15;992.34644;0;0;0;1;
335;8.3682;0.49577;5.92288;3.64;-1.47;6.72;992.34644;0;0;0;1;
336;8.57417;0.48858;5.61872;5.11;2.94;4.62;992.35254;0;0;0;1;
337;8.48795;0.60833;5.73368;4.83;3.15;0.49;992.35791;0;0;0;1;
338;8.943;0.08143;6.32285;-8.05;-2.24;10.71;992.34375;0;0;0;1;
339;9.65672;0.21555;6.82102;-3.85;4.9;2.45;992.34741;0;0;0;1;
340;9.77408;0.31135;7.35271;-2.52;-5.6;0.84;992.36914;0;0;0;1;
341;9.36453;0.194;6.74917;-2.45;-8.47;-3.71;992.37695;0;0;0;1;
342;9.17053;0.93885;7.35271;8.82;-2.1;-1.75;992.34741;0;0;0;1;
343;9.7597;0.41434;6.8306;16.58999;-12.32;5.95;992.35742;0;0;0;1;
344;9.7118;-0.05509;5.65225;8.89;-14.21;2.8;992.37012;0;0;0;1;
345;9.05078;0.24669;6.00431;2.73;-26.17999;3.71;992.37134;0;0;0;1;
346;8.33946;0.46703;4.52419;-1.33;-35.97998;2.24;992.36328;0;0;0;1;
347;6.83778;0.03593;3.67636;-6.51;-29.81999;-7.7;992.35059;0;0;0;1;
348;5.97078;-0.47421;2.08367;-30.23999;-24.91999;-14.27999;992.33569;0;0;0;1;
349;6.84736;0.13412;2.40699;4.76;-14.83999;-18.89999;992.34253;0;0;0;1;
350;9.10347;1.08494;2.47885;11.34;-24.70999;9.24;992.33569;0;0;0;1;
351;10.0998;0.61552;2.02858;-2.38;-9.8;7.21;992.31567;0;0;0;1;
352;10.27703;0.42871;3.06084;0.21;-5.32;0.14;992.30859;0;0;0;1;
353;9.6639;0.73288;2.59141;-7.42;-16.09999;-6.23;992.3186;0;0;0;1;
354;9.74773;1.18793;2.46208;1.68;-6.02;-1.54;992.32422;0;0;0;1;
355;9.88425;0.76162;2.1627;2.1;-2.24;0.84;992.31104;0;0;0;1;
356;10.00879;0.85263;2.20102;-3.01;-1.68;-1.05;992.2998;0;0;0;1;
357;9.94173;0.7233;2.11959;-2.03;-2.8;0.35;992.31177;0;0;1;0;
358;9.9537;0.99154;2.37825;-1.89;-2.94;-0.35;992.30713;0;0;1;0;
359;9.94652;0.80712;2.20102;0.91;-2.24;-1.47;992.33521;0;0;1;0;
360;10.02555;0.93166;1.83938;-0.84;0.91;-1.82;992.33911;0;0;1;0;
361;10.16446;0.69216;1.98787;-3.36;10.22;-2.45;992.33276;0;0;1;0;
362;10.14051;1.02028;2.38065;-1.33;10.29;-6.16;992.32349;0;0;1;0;
363;9.01725;1.11608;2.1172;1.75;-2.17;-8.54;992.32251;0;0;1;0;
364;6.3947;0.26345;1.6334;-1.75;4.97;-18.75999;992.32275;0;0;1;0;
365;6.00431;0.92208;2.82612;5.81;22.74999;-10.43;992.31421;0;0;1;0;
366;7.97063;1.80105;2.56028;11.69;34.64999;2.59;992.33691;0;0;1;0;
367;9.73575;1.27894;4.14817;1.26;42.62998;14.90999;992.34521;0;0;1;0;
368;9.99681;1.25739;4.87865;-6.16;13.92999;6.51;992.34619;0;0;1;0;
369;9.40524;1.01309;4.6655;0.07;15.88999;2.8;992.34521;0;0;1;0;
370;9.55613;1.11608;5.40077;14.63;7.98;3.85;992.34033;0;0;1;0;
371;10.06866;1.81782;4.80441;-15.46999;-0.63;0.77;992.3418;0;0;1;0;
372;9.73096;1.1999;5.74805;-11.97;12.67;-0.14;992.35229;0;0;1;0;
373;10.31295;0.13412;6.45458;-12.74;3.99;4.9;992.35376;0;0;1;0;
374;10.64586;0.81431;6.72043;-12.46;-2.17;-14.06999;992.35791;0;0;1;0;
375;8.85199;2.32556;5.51573;5.6;-3.92;-10.71;992.37476;0;0;1;0;
376;8.86157;0.63468;5.15408;6.23;0;7.91;992.37061;0;0;1;0;
377;9.01964;0.867;4.59604;-2.66;0.21;4.55;992.34204;0;0;1;0;
378;8.66997;1.06099;5.24988;-3.78;0.49;2.38;992.36011;0;0;1;0;
379;8.6556;0.68498;5.01517;0.07;0.63;0.35;992.37646;0;0;1;0;
380;8.93821;1.0586;5.35047;-4.27;-3.15;4.41;992.37695;0;0;1;0;
381;8.8017;0.88855;4.99362;-1.19;-3.5;0;992.37476;0;0;1;0;
382;8.66518;1.47533;4.93135;-1.82;-0.14;11.34;992.3606;0;0;1;0;
383;8.93103;-0.04072;4.96009;0.98;2.87;9.66;992.35547;0;0;0;1;
384;9.4244;0.51014;4.97925;-5.39;2.59;1.33;992.37622;0;0;0;1;
385;9.5681;0.62989;4.92656;-2.66;5.81;-4.34;992.37085;0;0;0;1;
386;8.83762;0.8167;5.1948;3.64;12.25;-4.9;992.38428;0;0;0;1;
387;8.57178;0.60354;5.74326;1.82;0.42;11.55;992.39771;0;0;0;1;
388;9.27352;1.16637;6.6821;15.04999;-19.31999;8.47;992.38354;0;0;0;1;
389;10.03753;0.40715;5.04152;13.23;-9.1;12.53;992.36523;0;0;0;1;
390;10.48061;-0.10778;5.32892;4.06;-3.5;10.71;992.37598;0;0;0;1;
391;10.73448;0.49577;5.82469;1.75;-2.17;2.8;992.37915;0;0;0;1;
392;10.66742;0.76162;5.83666;3.64;-9.59;4.48;992.39062;0;0;0;1;
393;10.16446;0.30417;5.21396;9.94;-14.21;-2.1;992.38159;0;0;0;1;
394;9.98484;0.32333;4.69424;1.82;-16.37999;1.33;992.36206;0;0;0;1;
395;9.02683;0.55085;3.90149;3.22;-16.09999;-1.12;992.35229;0;0;0;1;
396;7.791;0.20358;3.45841;4.27;-27.43999;-3.64;992.35547;0;0;0;1;
397;5.98755;0.00958;2.60578;-13.3;-30.86999;-13.79;992.35864;0;0;0;1;
398;6.35638;0.03593;1.78908;-28.83999;-21.20999;-21.83999;992.36279;0;0;0;1;
399;7.98979;1.54;1.94476;3.99;-18.47999;0.49;992.36182;0;0;0;1;
400;10.71053;0.27782;1.13284;5.25;-8.05;21.27999;992.34619;0;0;0;1;
401;10.8207;0.26824;2.26569;-2.31;1.05;-1.33;992.31592;0;0;0;1;
402;9.6663;0.479;2.53393;-7.98;-13.79;-5.81;992.30225;0;0;0;1;
403;9.9537;1.09931;1.88488;1.54;-6.79;-2.66;992.30444;0;0;0;1;
404;9.86269;0.71132;1.85375;3.08;-6.09;0.49;992.30225;0;0;0;1;
405;10.14051;0.71372;1.71244;-3.08;-2.17;-0.35;992.30396;0;0;0;1;
406;9.91778;0.867;2.08367;2.52;-1.75;-0.77;992.28687;0;0;0;1;
407;9.99681;0.867;1.38193;2.66;-2.03;1.47;992.2771;0;0;0;1;
408;10.01597;0.77838;1.83219;6.02;4.2;2.66;992.28955;0;0;0;1;
409;10.3896;0.57001;1.84417;0.98;1.19;1.89;992.2937;0;0;0;1;
410;10.08782;0.90532;1.78668;0.77;-0.35;-2.1;992.28467;0;0;1;0;
411;9.92017;0.65384;1.95673;-2.73;-3.64;-1.4;992.29932;0;0;1;0;
412;10.03513;1.00112;1.71962;-0.84;-0.7;-1.54;992.29785;0;0;1;0;
413;10.16446;0.66582;1.35319;0.98;1.33;-0.14;992.28638;0;0;1;0;
414;10.52611;0.47661;1.88967;-3.29;0.42;-3.01;992.29468;0;0;1;0;
415;9.70941;1.1065;0.74964;-2.03;-0.42;-13.01999;992.25708;0;0;1;0;
416;8.34664;1.06578;1.04662;-2.03;21.55999;-5.88;992.24316;0;0;1;0;
417;7.118;0.37841;1.85614;-11.13;17.77999;-8.4;992.25781;0;0;1;0;
418;7.16111;1.75794;2.78062;9.73;10.78;-10.78;992.27588;0;0;1;0;
419;7.54431;1.72202;1.75315;6.86;20.36999;-14.27999;992.27881;0;0;1;0;
420;8.5598;1.65017;2.33514;-3.71;36.46999;9.66;992.27466;0;0;1;0;
421;10.17165;1.94715;3.59253;3.22;35.13999;5.25;992.28345;0;0;1;0;
422;9.99202;1.39151;4.8547;-5.39;20.15999;13.44;992.29077;0;0;1;0;
423;10.85662;0.9125;4.4715;-17.70999;10.29;3.29;992.31885;0;0;1;0;
424;10.20278;1.11608;5.42472;-20.92999;5.11;-2.66;992.3103;0;0;1;0;
425;10.15967;1.65735;6.48332;-8.89;0.07;1.4;992.31226;0;0;1;0;
426;10.17644;1.57353;5.02954;9.87;1.89;-5.95;992.32227;0;0;1;0;
427;10.60515;1.03704;5.27144;-2.8;-8.82;3.5;992.30713;0;0;1;0;
428;11.37395;1.43462;5.61632;0.56;3.57;-2.31;992.33447;0;0;1;0;
429;9.9058;1.20469;4.25355;-11.89999;-4.69;-8.47;992.34375;0;0;1;0;
430;7.25451;1.1065;4.37091;4.97;7.14;-7.35;992.36157;0;0;1;0;
431;8.02571;0.79994;3.67875;8.05;-0.28;3.99;992.36182;0;0;1;0;
432;8.56938;1.27176;4.3757;-5.6;-2.87;5.6;992.37622;0;0;0;1;
433;10.12135;1.46096;4.711;-6.58;-1.33;6.86;992.37671;0;0;0;1;
434;10.19799;1.30529;5.36245;-6.09;11.83;5.39;992.37207;0;0;0;1;
435;8.69871;0.77359;4.39965;-1.47;10.29;-3.36;992.34961;0;0;0;1;
436;7.74789;1.23104;4.54814;1.82;8.4;1.26;992.35669;0;0;0;1;
437;7.597;0.21076;4.18889;-8.47;20.57999;3.5;992.36206;0;0;0;1;
438;9.46751;1.4921;6.14802;2.38;23.79999;19.87999;992.36914;0;0;0;1;
439;11.00033;-0.11736;6.52164;-14.97999;6.16;7.35;992.37085;0;0;0;1;
440;8.65321;0.75683;6.18634;1.75;-3.92;-18.96999;992.38477;0;0;0;1;
441;7.78621;0.98675;5.49897;-2.24;9.94;-5.32;992.36523;0;0;0;1;
442;8.46879;0.62031;5.60195;3.01;8.61;0.49;992.36768;0;0;0;1;
443;9.29986;0.7688;7.06052;-5.95;11.2;3.71;992.38843;0;0;0;1;
444;9.15856;0.96519;7.77184;-1.96;2.59;-0.35;992.38403;0;0;0;1;
445;8.29874;0.94603;6.30369;4.34;-0.56;-2.66;992.39771;0;0;0;1;
446;8.10714;0.85742;5.72889;7.21;1.26;4.2;992.40015;0;0;0;1;
447;7.98739;0.56762;5.34329;-3.92;7.7;2.87;992.3894;0;0;0;1;
448;8.46639;1.25739;6.51206;6.93;18.61999;-7.35;992.39404;0;0;0;1;
449;8.85918;-0.02156;7.51797;-14.7;4.69;-9.31;992.38086;0;0;0;1;
450;7.36229;-0.2898;7.5012;-54.52998;56.34998;-50.39998;992.39551;0;0;0;1;
451;5.70015;-0.32093;9.11065;-76.36997;75.59997;-75.03997;992.37573;0;0;0;1;
452;3.24525;-0.92687;9.0412;-54.45998;101.49996;-94.07997;992.35083;0;0;0;1;
453;1.81303;0.16286;8.76098;8.61;73.49997;-97.64996;992.34302;0;0;0;1;
454;1.14242;2.91713;7.89638;55.08998;34.01999;-70.27998;992.34326;0;0;0;1;
455;0.55804;3.35542;8.37299;64.67998;22.39999;-45.49998;992.35693;0;0;0;1;
456;0.28501;5.09181;7.9826;61.80997;18.54999;-30.30999;992.33643;0;0;0;1;
457;-0.20118;5.64506;7.94907;37.02999;0.77;-8.47;992.32788;0;0;0;1;
458;0.12694;5.68817;7.12279;33.10999;-3.29;-5.6;992.32788;0;0;0;1;
459;0.23471;6.46176;7.01022;33.73999;0.56;-13.92999;992.32788;0;0;0;1;
460;-0.01677;7.03178;6.90963;17.42999;-1.75;-6.02;992.34595;0;0;0;1;
461;-0.00958;7.00543;7.0701;9.17;-6.3;0.98;992.37598;0;0;0;1;
462;0.16286;7.0677;6.81862;8.82;-6.09;0;992.36548;0;0;0;1;
463;0.18442;7.00783;6.77312;10.36;-3.43;0.28;992.37158;0;0;0;1;
464;0.18921;7.02699;6.70845;7.14;-2.87;-2.52;992.39087;0;0;0;1;
465;0.18442;7.17069;6.53601;4.27;-3.15;-2.03;992.38599;0;0;0;1;
466;0.21316;7.00304;6.76593;2.38;0.56;-4.13;992.38965;0;0;0;1;
467;0.15328;6.76114;6.45937;6.79;-0.07;-1.4;992.40161;0;0;0;1;
468;-0.20358;7.46528;6.5863;0.42;-2.66;3.15;992.42554;0;0;0;1;
469;0.57959;7.31678;6.58391;1.19;-0.28;0.91;992.41724;0;0;0;1;
470;0.34249;7.3599;6.76593;5.74;-2.45;0.21;992.38794;0;0;0;1;
471;0.74964;7.09644;6.91203;3.15;-8.68;-0.91;992.40649;0;0;0;1;
472;0.66582;7.50839;6.91682;5.32;-18.61999;-3.85;992.39551;0;0;0;1;
473;0.80712;7.05573;7.76226;3.01;-32.54999;-13.44;992.39526;0;0;0;1;
474;0.95561;6.74677;6.70606;-12.95;-50.67998;-18.40999;992.40015;0;0;0;1;
475;1.47294;6.12886;6.65576;-31.35999;-28.90999;-38.14999;992.42969;0;0;0;1;
476;0.85742;5.60195;6.93598;-6.51;-18.61999;-60.40998;992.49316;0;0;0;1;
477;-0.61552;6.924;7.74549;-16.44999;-10.57;-51.51998;992.6272;0;0;0;1;
478;-0.81191;7.05094;7.24014;-25.26999;-9.73;-19.38999;992.75391;0;0;0;1;
479;-0.56043;5.97078;8.02092;-28.06999;-6.16;-3.08;992.84521;0;0;0;1;
480;-0.30656;5.07505;8.13828;-27.36999;-4.83;-1.75;992.90112;0;0;0;1;
481;0.09101;4.8068;8.32988;-34.08998;-9.52;-2.17;992.91528;0;0;0;1;
482;0.3377;4.90979;8.74901;-25.68999;-1.82;-3.36;992.91675;0;0;0;1;
483;-0.49337;5.16606;9.18969;13.37;12.04;-9.17;992.88525;0;0;0;1;
484;-0.17244;4.98643;8.87115;3.01;-0.56;11.48;992.81104;0;0;0;1;
485;0.16286;3.78653;8.08798;13.64999;12.80999;-0.35;992.73828;0;0;0;1;
486;-0.75922;4.79722;8.34185;27.08999;10.22;-7.84;992.67896;0;0;0;1;
487;-1.33403;5.90372;8.68913;5.04;-5.04;0;992.57251;0;0;0;1;
488;-0.39997;5.65704;8.21971;4.76;-7.49;-3.5;992.52319;0;0;0;1;
489;-0.37123;5.73607;8.10714;3.57;-6.37;-1.47;992.47534;0;0;0;1;
490;-0.00719;5.4343;7.87961;16.16999;-2.73;12.74;992.44678;0;0;0;1;
491;0.04551;6.50248;7.85327;20.71999;-2.45;2.31;992.41528;0;0;0;1;
492;-0.02874;5.9612;7.73591;13.23;-2.73;-3.01;992.396;0;0;0;1;
493;-0.26824;5.69775;7.60419;5.46;-1.19;2.66;992.36768;0;0;0;1;
494;-0.18442;6.11449;7.52036;6.93;0.63;1.75;992.33813;0;0;0;1;
495;-0.04072;6.35878;7.70957;9.17;-2.17;0.14;992.34009;0;0;0;1;
496;0.02874;6.37075;7.47007;1.26;-3.36;-1.82;992.34033;0;0;0;1;
497;0.03832;6.60307;7.52755;8.26;1.75;-1.89;992.33862;0;0;0;1;
498;-0.10059;6.5863;7.40061;7.84;1.26;0.42;992.33203;0;0;0;1;
499;-0.13412;6.20071;7.27367;4.2;0.7;0.14;992.36035;0;0;0;1;
500;-0.02874;6.5863;7.33355;2.94;1.05;0.84;992.36548;0;0;0;1;
501;-0.06467;6.45937;7.5036;-5.53;-4.97;2.31;992.3584;0;0;0;1;
502;0.12933;6.55517;6.98627;3.29;-5.6;-3.08;992.36865;0;0;0;1;
503;0.03353;6.66534;7.22338;1.12;-1.68;-5.46;992.37891;0;0;0;1;
504;-0.06706;6.67971;7.36229;5.53;1.26;1.26;992.38159;0;0;0;1;
505;0.02395;6.3947;7.39103;-2.17;-0.14;-0.7;992.3728;0;0;0;1;
506;0.08862;6.56475;7.36469;2.38;-0.42;2.52;992.3728;0;0;0;1;
507;0.00719;6.42105;7.33116;-0.28;-0.56;-2.59;992.38672;0;0;0;1;
508;0.05748;6.52643;7.4557;-2.38;-2.73;-7.7;992.37939;0;0;0;1;
509;-0.09101;6.5863;7.43893;5.39;-1.12;0.21;992.36206;0;0;0;1;
510;0.07664;6.63181;7.2593;-0.07;2.66;-2.8;992.36011;0;0;0;1;
511;-0.06227;6.56235;7.31439;-0.91;0.84;2.31;992.37646;0;0;0;1;
512;0.02156;6.5384;7.18745;5.04;1.96;-1.96;992.396;0;0;0;1;
513;0.06946;6.31567;7.68562;-8.05;-0.21;10.08;992.40137;0;0;0;1;
514;0.12694;6.44739;7.09644;-1.96;-3.57;2.31;992.39307;0;0;0;1;
515;0.49816;7.08447;7.29762;-0.42;-0.07;2.73;992.37354;0;0;0;1;
516;0.15089;6.67731;7.23056;4.9;-0.77;-4.48;992.3667;0;0;0;1;
517;-0.09101;6.59109;7.13955;-2.94;-2.24;-0.63;992.39111;0;0;0;1;
518;0.19639;6.64857;7.13955;-1.68;-2.31;-6.37;992.33936;0;0;0;1;
519;0.02156;6.56714;7.33595;-0.21;0.07;0.14;992.31372;0;0;0;1;
520;0.14849;6.40189;7.27846;3.85;2.17;6.72;992.32886;0;0;0;1;
521;0.03593;6.31327;7.52276;-9.94;-6.23;0.56;992.33032;0;0;0;1;
522;0.13173;6.72282;7.17069;0.42;-4.34;-3.99;992.31909;0;0;0;1;
523;0.09101;6.51924;7.20422;4.27;2.59;-4.2;992.31689;0;0;0;1;
524;-0.07664;6.35878;7.32158;-1.47;0.14;-5.67;992.3252;0;0;0;1;
525;0.20837;6.87131;7.32158;1.26;-0.56;6.72;992.32422;0;0;0;1;
526;0.00719;6.62702;6.97669;7.98;3.36;-3.08;992.31421;0;0;0;1;
527;0.13652;6.63181;7.36469;-0.77;1.47;4.9;992.30591;0;0;0;1;
528;0.21555;6.56235;7.19224;-3.08;-0.98;-2.73;992.33154;0;0;0;1;
529;0.10299;6.69887;7.2138;-1.82;-0.98;-0.42;992.34692;0;0;0;1;
530;0.10299;6.55517;7.28565;2.38;0.28;5.04;992.36621;0;0;0;1;
531;0.18202;6.68929;7.00064;-2.24;-2.1;3.08;992.38135;0;0;0;1;
532;0.32333;6.25579;7.40301;-2.17;-5.25;1.33;992.37744;0;0;0;1;
533;0.22513;6.59109;7.312;-1.96;-2.73;-1.89;992.34595;0;0;0;1;
534;0.30656;6.53122;7.24493;3.08;-0.42;2.45;992.33057;0;0;0;1;
535;0.22513;6.80904;7.18506;1.05;-1.05;-4.06;992.33008;0;0;0;1;
536;0.34967;6.77551;7.17069;2.1;0.63;-1.47;992.33936;0;0;0;1;
537;0.17244;6.59828;7.24493;-3.78;-0.98;2.03;992.34302;0;0;0;1;
538;0.17723;6.69168;7.10842;4.9;1.26;-0.77;992.31616;0;0;0;1;
539;0.3353;6.48811;7.30481;5.81;1.26;3.15;992.30591;0;0;0;1;
540;0.24908;6.48571;7.18745;-4.27;-1.47;4.2;992.31665;0;0;0;1;
541;0.48619;6.84257;7.23056;-8.89;-5.46;2.45;992.32617;0;0;0;1;
542;0.45984;6.8282;7.18027;4.34;-1.19;4.34;992.32568;0;0;0;1;
543;0.42631;6.72282;7.25212;3.01;-1.89;-1.33;992.30664;0;0;0;1;
544;0.63947;6.70366;7.19943;-1.33;-1.68;2.8;992.28931;0;0;0;1;
545;0.29698;6.65336;7.20182;6.3;2.66;-9.45;992.27686;0;0;0;1;
546;0.27782;6.86652;7.18745;6.93;4.41;-1.68;992.28271;0;0;0;1;
547;0.20597;6.74198;7.03896;10.57;3.08;0.14;992.28979;0;0;0;1;
548;0.4335;6.48811;7.34792;-5.18;-3.92;1.82;992.27856;0;0;0;1;
549;0.79275;6.69408;7.4557;-20.50999;-11.48;16.30999;992.25879;0;0;0;1;
550;0.67061;6.76593;7.02699;1.96;-5.32;-3.78;992.25635;0;0;0;1;
551;0.5748;6.4905;7.12997;-1.05;-0.77;-2.45;992.25464;0;0;0;1;
552;0.58917;6.54559;7.27846;1.19;1.12;-0.42;992.24731;0;0;0;1;
553;0.60115;6.65815;7.19224;0.14;-0.07;-1.68;992.23169;0;0;0;1;
554;0.55325;6.6366;7.31439;2.03;0.28;-0.35;992.22095;0;0;0;1;
555;0.52451;6.78509;7.17787;4.34;1.05;2.31;992.21094;0;0;0;1;
556;0.45026;6.81144;7.12758;7.91;3.15;-2.38;992.24487;0;0;0;1;
557;0.40236;6.65336;7.19224;-1.19;1.47;2.1;992.25732;0;0;0;1;
558;0.53648;6.60307;7.29762;-1.82;-0.84;0.98;992.24976;0;0;0;1;
559;0.54606;6.76833;7.21859;-0.21;-0.07;1.61;992.24219;0;0;0;1;
560;0.55564;6.77312;7.20901;-1.12;-1.61;-0.21;992.25684;0;0;0;1;
561;0.58917;6.66534;7.05812;1.47;0.56;2.94;992.25439;0;0;0;1;
562;0.54127;6.80904;7.23775;-0.56;-0.28;3.92;992.24438;0;0;0;1;
563;0.53648;6.85694;7.3072;0.35;-5.6;-5.32;992.25415;0;0;0;1;
564;0.59396;6.77312;6.9743;-0.7;-2.94;-2.1;992.24683;0;0;0;1;
565;0.59636;6.87371;7.08686;0.07;0.7;3.36;992.22681;0;0;0;1;
566;0.64426;6.76354;7.14913;1.26;1.54;-1.82;992.22974;0;0;0;1;
567;0.51253;6.73001;7.25451;-1.05;-0.49;1.26;992.23608;0;0;0;1;
568;0.673;6.80665;7.17548;1.19;1.33;3.08;992.24146;0;0;0;1;
569;0.80952;6.91682;7.22098;0.56;-4.9;-0.7;992.24219;0;0;0;1;
570;0.65384;6.80186;6.99346;3.15;-0.14;-2.94;992.24292;0;0;0;1;
571;0.82389;6.55038;7.17069;1.96;0.56;4.48;992.24536;0;0;0;1;
572;0.92927;6.65097;7.0198;1.47;-1.12;0;992.24121;0;0;0;1;
573;0.53648;6.76354;7.07728;-1.19;1.47;-1.47;992.22339;0;0;0;1;
574;0.69935;6.79707;7.02938;-1.05;-0.35;1.47;992.23071;0;0;0;1;
575;0.87179;6.72043;6.96951;0;0.14;0.84;992.21777;0;0;0;1;
576;0.80952;6.30609;7.4078;-7.28;-6.93;2.66;992.24951;0;0;0;1;
577;0.8191;6.93119;6.97909;-5.53;-4.76;0.28;992.25171;0;0;0;1;
578;0.79275;6.88089;6.98627;0.91;2.66;3.99;992.25366;0;0;0;1;
579;0.79275;6.92879;7.1156;-2.8;-0.28;-1.96;992.27124;0;0;0;1;
580;1.02986;6.67492;7.10602;0.35;0.35;1.61;992.27319;0;0;0;1;
581;0.62989;6.74677;7.11321;1.26;1.47;-1.05;992.27222;0;0;0;1;
582;0.92208;6.73001;7.10842;-0.42;-0.56;0.14;992.26831;0;0;0;1;
583;1.0107;6.67252;7.12758;-1.4;-1.19;1.05;992.25684;0;0;0;1;
584;0.65863;6.67252;7.33355;-2.66;-1.82;-3.78;992.24902;0;0;0;1;
585;1.01309;6.46655;7.02459;0.63;-1.61;3.36;992.26611;0;0;0;1;
586;0.79275;6.5887;7.33116;-0.84;1.82;-6.16;992.26636;0;0;0;1;
587;0.63708;6.69887;7.36469;1.47;1.19;3.64;992.25928;0;0;0;1;
588;0.97956;6.64857;7.01262;4.69;0.07;7.14;992.25366;0;0;0;1;
589;0.73527;6.87131;6.89526;0.28;1.26;-2.73;992.26587;0;0;0;1;
590;0.75922;6.90724;7.08686;5.04;0.98;5.32;992.26758;0;0;0;1;
591;0.70414;6.97909;7.17548;0.77;1.12;-4.34;992.25854;0;0;0;1;