Time;Ax;Ay;Az;Gx;Gy;Gz;BAR;P;R;Mag;UP;DOWN
0;9.22918;2.0158;2.29008;-0.5722;3.08227;0.11444;992.25366;-11.96877;76.0644;0.7644;0;0
1;8.95969;2.20624;2.2266;5.77545;9.61303;6.27899;992.25604;-13.44;76.04398;0.76543;0;0
2;7.49905;1.34746;1.71636;-0.5722;23.59007;7.19451;992.25092;-9.93484;77.10835;0.78024;0;0
3;6.30131;1.26302;1.39237;2.60162;19.19554;-7.45391;992.23309;-11.07373;77.53982;0.78826;0;0
4;6.13901;1.37321;2.35655;-5.39398;9.7351;2.55585;992.26343;-11.79547;68.99995;0.6492;0;0
5;7.83801;1.49717;4.10705;1.50299;-4.66919;17.14324;992.27386;-9.60316;62.34584;0.54237;0;0
6;9.431;1.24505;4.0795;-8.5678;20.1721;4.26483;992.26874;-6.90866;66.60848;0.60587;0;0
7;10.18019;1.56545;4.68795;-12.41301;19.86693;7.19451;992.28876;-7.95139;65.27404;0.58574;0;0
8;10.48621;1.45585;5.3006;-18.75304;15.96831;7.79723;992.28149;-7.06322;63.1842;0.5523;0;0
9;10.2263;1.03904;5.45271;-10.02502;8.94927;1.20544;992.29169;-5.1232;61.93326;0.53138;0;0
10;9.34476;-0.42759;6.22525;-17.71544;-3.13568;-4.47082;992.30957;2.18083;56.32943;0.44598;0;0
11;9.60228;1.30254;5.52757;-4.71496;7.66754;-13.74816;992.35779;-6.70503;60.07304;0.50452;0;0
12;10.39159;1.54149;6.27556;-6.48498;-0.02289;-10.26916;992.31445;-7.23676;58.87191;0.48717;0;0
13;9.45735;1.42471;5.91504;-5.20324;-5.27191;-4.59289;992.32489;-7.27853;57.97636;0.474;0;0
14;8.57462;1.32949;5.38623;-5.44738;-3.99017;-8.255;992.29169;-7.47986;57.86459;0.4726;0;0
15;9.91968;1.56844;5.69345;-9.23156;-11.8637;-1.23596;992.30402;-7.80838;60.14609;0.50683;0;0
16;11.02938;2.56316;5.7767;-18.99718;-9.17815;-10.26916;992.29425;-11.63277;62.35646;0.54556;0;0
17;9.82685;1.77685;5.09638;-2.5177;-2.34222;-10.57433;992.28619;-9.11894;62.58794;0.54543;0;0
18;9.36932;2.04155;4.38612;-11.55089;-5.33294;-3.06701;992.27069;-11.1635;64.91397;0.58404;0;0
19;7.69907;1.10671;3.90403;-15.70128;-4.17327;-5.63049;992.28064;-7.30577;63.11142;0.55141;0;0
20;5.54374;0.21799;3.43152;-2.94494;14.50347;-17.95958;992.26556;-1.91495;58.24286;0.47397;0;0
21;5.04727;0.53479;3.50638;9.14001;-12.47405;-33.4625;992.23987;-4.97327;55.21198;0.43161;0;0
22;7.12415;2.12958;3.08657;33.55405;-38.71914;-13.68712;992.27814;-15.33827;66.57509;0.61661;0;0
23;9.52203;3.63753;2.57634;0.71716;7.48443;-6.36291;992.20398;-20.24162;74.8602;0.75495;0;0
24;8.03803;2.55418;3.01351;-0.13733;-11.8637;-6.42394;992.25726;-16.56978;69.44863;0.66353;0;0
25;8.49556;3.22731;3.40278;-9.96398;2.47955;5.35583;992.25983;-19.42499;68.17213;0.64935;0;0
26;8.62552;2.31942;4.47595;32.82163;-2.03705;4.37927;992.24921;-13.42421;62.57431;0.55199;0;0
27;9.08545;2.71108;3.57825;10.78795;4.00543;-4.83703;992.29297;-15.51685;68.50332;0.64691;0;0
28;8.62013;3.1812;3.08418;-0.07629;-5.63812;0.28992;992.23389;-19.1609;70.3134;0.68179;0;0
29;8.86986;3.0716;3.06322;0.10681;-3.31878;-1.90735;992.24902;-18.12465;70.94757;0.68976;0;0
30;8.64768;3.18359;2.91709;6.21032;0.28229;-3.98254;992.23114;-19.23041;71.35937;0.6982;0;0
31;7.99371;3.3932;2.04694;3.76892;4.61578;2.73132;992.25897;-22.35321;75.63699;0.77058;0;0
32;6.52828;3.01112;1.36243;-13.44298;14.62554;13.77868;992.25366;-24.29985;78.21177;0.8138;0;0
33;3.31714;0.72284;1.3223;-11.30675;5.47027;7.61413;992.25623;-11.44316;68.2664;0.63707;0;0
34;4.68376;1.23846;2.21941;5.66101;12.85552;15.60973;992.2486;-13.43871;64.64595;0.58351;0;0
35;8.29854;2.16791;3.13748;1.38855;23.29252;30.6854;992.27899;-13.73161;69.28959;0.65646;0;0
36;11.10963;2.36494;5.64195;-21.1334;36.10989;23.7274;992.26093;-10.7469;63.07657;0.55514;0;0
37;11.45158;2.03017;7.17206;5.41687;15.84624;7.43102;992.30914;-8.54466;57.94131;0.4751;0;0
38;10.51196;1.41333;6.90976;4.07409;12.48931;1.44958;992.29895;-6.41037;56.68214;0.45415;0;0
39;10.28499;2.51645;4.93469;-44.57088;16.39556;-1.90735;992.33466;-12.43994;64.36855;0.57758;0;0
40;9.41663;2.0128;5.2976;3.76892;5.10406;-11.36779;992.31677;-10.55281;60.63879;0.51798;0;0
41;8.38956;1.46244;5.57488;12.19176;-1.4267;-3.43322;992.26514;-8.26077;56.39591;0.45229;0;0
42;8.44586;1.54628;5.75095;9.14001;3.63922;-2.63977;992.30109;-8.6053;55.74831;0.44351;0;0
43;8.45245;1.75469;5.84197;4.56237;7.6065;-8.98742;992.29828;-9.69121;55.34941;0.43954;0;0
44;9.31182;2.4907;6.97144;15.30455;0.77057;-7.27844;992.32611;-12.0856;53.17907;0.41397;0;0
45;11.20545;2.87697;7.95239;4.50134;1.80816;-5.14221;992.3512;-11.82565;54.63708;0.43353;0;0
46;11.11203;3.40996;8.1081;6.33239;2.54059;-4.16565;992.34332;-13.92268;53.88295;0.42788;0;0
47;9.7478;2.49429;7.08942;-14.54161;-7.46917;-4.65393;992.34888;-11.69177;53.97221;0.42403;0;0
48;8.68002;2.11281;6.41868;-10.14709;-9.97161;-12.22228;992.31549;-11.07355;53.51787;0.4165;0;0
49;7.48587;2.44578;5.75514;3.82995;-9.91057;-15.213;992.30725;-14.52161;52.44692;0.40998;0;0
50;6.39593;1.51035;3.36086;4.56237;-17.41789;-10.6964;992.28705;-11.80707;62.2795;0.54468;0;0
51;4.33043;0.86117;3.01112;9.20104;-3.07464;-17.41026;992.28638;-9.27309;55.18758;0.43657;0;0
52;4.558;1.54987;2.77995;4.98962;-13.69475;-21.1334;992.2403;-16.18803;58.6207;0.49994;0;0
53;5.90905;3.12071;2.79433;13.35143;-30.84562;-12.10021;992.28387;-25.52132;64.69103;0.61421;0;0
54;7.00378;3.84115;3.00153;0.83923;-25.16935;6.21032;992.23029;-26.75256;66.802;0.64825;0;0
55;8.19314;3.62735;4.21125;-0.80872;-4.47845;-3.43322;992.23755;-21.4926;62.79695;0.57464;0;0
56;8.32309;2.85421;4.99996;-0.68664;-7.65228;2.05993;992.22968;-16.38135;59.00534;0.50595;0;0
57;8.4243;3.21833;3.46386;7.43102;-5.33294;-3.79944;992.22162;-19.45969;67.64876;0.64144;0;0
58;8.14403;4.01602;3.10454;5.59997;-8.01849;1.75476;992.25726;-24.73932;69.13293;0.67649;0;0
59;8.1057;3.77887;2.97698;-5.44738;-4.60052;5.59997;992.24945;-23.63504;69.83323;0.68416;0;0
60;8.34704;3.87648;3.37882;9.20104;-6.85882;5.78308;992.24921;-23.29102;67.96226;0.65536;0;0
61;8.25542;4.05315;1.92537;9.75036;-0.45013;7.98034;992.24414;-25.55418;76.87189;0.79509;0;0
62;5.06823;2.34278;1.15522;4.86755;7.17925;13.35143;992.22607;-24.26053;77.15974;0.79739;0;0
63;2.75839;0.63959;1.48699;-2.02942;-3.62396;24.03257;992.2384;-11.53583;61.67181;0.53506;0;0
64;5.15387;1.5912;2.16431;-0.4425;7.11822;30.13608;992.27405;-15.88937;67.22054;0.62761;0;0
65;9.87476;2.67096;3.94356;-5.69152;35.0723;30.99057;992.2439;-14.10057;68.23035;0.6403;0;0
66;11.26354;2.10443;5.86233;-6.36291;38.06301;18.05113;992.32507;-9.41019;62.50437;0.54453;0;0
67;10.47842;1.82595;5.86174;-2.82287;27.74808;-0.56457;992.30444;-8.64726;60.77691;0.51734;0;0
68;10.55508;1.78583;6.51211;-14.41954;11.87896;8.71276;992.34253;-8.1938;58.32689;0.48029;0;0
69;10.53531;2.07928;6.54864;-16.49474;9.01031;-0.07629;992.36267;-9.51543;58.13535;0.47935;0;0
70;9.88614;2.03316;6.4103;-5.93566;1.68609;-5.32531;992.37036;-9.79041;57.0401;0.46387;0;0
71;9.13336;2.18707;4.72089;-18.63096;7.66754;-8.74328;992.37799;-12.00914;62.66628;0.55088;0;0
72;8.93094;2.19605;4.73167;-3.55529;-3.92913;-7.2174;992.41412;-12.25877;62.08508;0.54251;0;0
73;8.14702;2.04035;4.77958;-5.81359;6.87408;-5.9967;992.35974;-12.18927;59.60131;0.50539;0;0
74;7.92065;1.83613;5.39941;1.81579;6.01959;-6.91223;992.35187;-10.84335;55.71823;0.44679;0;0
75;8.24763;2.37512;5.4569;5.59997;0.8316;-9.10949;992.37738;-13.50476;56.51009;0.46347;0;0
76;9.007;2.60628;5.79167;7.06481;-1.91498;-1.23596;992.3493;-13.67908;57.25823;0.47449;0;0
77;11.0749;3.22731;6.92233;0.16785;4.92096;-0.99182;992.31873;-13.88017;57.99266;0.48545;0;0
78;10.94494;3.24707;7.21338;-0.93079;-1.18256;-4.22668;992.38965;-13.91286;56.61268;0.46585;0;0
79;9.86099;2.49489;6.85466;4.2572;-13.45061;-4.47082;992.34167;-11.73598;55.1957;0.44116;0;0
80;9.3765;2.34937;6.31927;-4.10461;-16.62444;-8.98742;992.31549;-11.73772;56.02209;0.45281;0;0
81;8.29614;2.45417;5.70723;-15.213;-19.49309;-12.52746;992.30786;-13.69702;55.47445;0.44934;0;0
82;7.44575;2.13198;4.00404;-9.4757;-17.72307;-13.56505;992.29999;-14.1539;61.73031;0.54076;0;0
83;5.29221;1.13845;3.55369;-0.62561;-6.55364;-24.49034;992.23602;-10.12572;56.11884;0.45121;0;0
84;5.0844;1.47561;2.66257;11.27623;-16.68547;-23.81895;992.25391;-14.41867;62.36008;0.5507;0;0
85;5.26886;2.58352;2.42782;15.06041;-29.38077;-19.54649;992.24579;-24.00508;65.26039;0.6177;0;0
86;6.53726;3.70281;1.5906;2.182;-23.03312;-1.84631;992.22284;-28.82661;76.32494;0.79288;0;0
87;7.63858;3.94535;2.22121;-26.74863;1.44195;11.33727;992.23798;-26.37958;73.78621;0.74985;0;0
88;8.96388;3.98069;3.31055;14.99938;-16.50237;2.05993;992.26367;-22.61555;69.72974;0.68019;0;0
89;8.86746;3.39499;2.44099;10.48278;4.24957;-1.17493;992.16125;-20.26057;74.60909;0.75102;0;0
90;8.44646;3.4459;2.859;8.65173;-3.74603;-3.25012;992.21478;-21.12814;71.29978;0.70094;0;0
91;8.73811;4.03578;2.70749;6.08825;-9.11712;0.9613;992.25812;-23.80553;72.78448;0.72921;0;0
92;8.16679;3.88487;1.97627;10.66588;6.20269;1.87683;992.21967;-24.81329;76.39658;0.78651;0;0
93;7.01037;3.58663;1.63851;-3.12805;18.47075;9.20104;992.22736;-26.48209;76.84463;0.79629;0;0
94;4.58854;2.00022;2.03556;-12.03917;25.12358;18.72252;992.24536;-21.72574;66.07706;0.6233;0;0
95;4.26814;1.08096;2.57454;-0.01526;16.76177;2.36511;992.24518;-12.23592;58.90166;0.49522;0;0
96;5.90665;2.09664;3.29019;18.11217;20.85112;16.9525;992.23456;-17.22861;60.88082;0.53521;0;0
97;8.5812;2.78534;3.604;-6.60705;37.3306;31.60093;992.24243;-16.66057;67.21821;0.62903;0;0
98;10.60538;2.43021;6.06296;-19.7296;46.42483;9.32311;992.27283;-11.25125;60.24397;0.51323;0;0
99;9.69031;2.56795;6.69357;-11.30675;18.40971;2.85339;992.30829;-12.30035;55.36528;0.4447;0;0
100;9.68552;2.55897;6.88461;-15.88439;8.6441;5.2948;992.30084;-12.15283;54.59424;0.43362;0;0
101;10.00472;2.49549;7.58408;-15.02989;10.65825;-1.96838;992.30066;-11.24239;52.83602;0.40749;0;0
102;8.78602;2.30565;7.37987;0.41199;-0.3891;2.24304;992.34375;-11.36185;49.97121;0.36943;0;0
103;9.1106;1.5918;7.5787;-14.29747;-9.42229;2.79236;992.32867;-7.65021;50.24447;0.36618;0;0
104;8.24224;1.27739;6.84388;6.39343;5.28717;-9.29259;992.32849;-6.79955;50.29572;0.36567;0;0
105;7.61103;1.72714;6.51391;6.02722;-2.34222;-11.00158;992.3667;-9.78192;49.44143;0.35923;0;0
106;8.78063;2.39009;6.6774;4.07409;-1.36566;-4.89807;992.34357;-12.22511;52.74813;0.40841;0;0
107;10.064;2.60448;7.84579;-5.87463;11.63482;-5.08117;992.36139;-11.53557;52.0604;0.39759;0;0
108;10.0682;3.34708;8.55006;-7.88879;11.14654;-1.72424;992.32568;-14.21935;49.66159;0.37253;0;0
109;9.24236;2.73863;8.66684;0.16785;-11.74163;-1.72424;992.31531;-12.19666;46.84057;0.33141;0;0
110;8.60755;1.79841;7.87214;11.39831;-17.72307;-12.22228;992.30725;-8.76471;47.55515;0.333;0;0
111;7.64517;2.04035;5.52876;-0.99182;-23.82658;-15.02989;992.28406;-12.20271;54.12664;0.42724;0;0
112;6.22465;1.68821;3.59202;-7.76672;-32.5546;-15.27403;992.24329;-13.21953;60.01232;0.51343;0;0
113;4.36217;1.58281;2.73085;1.32751;-24.98625;-15.27403;992.25562;-17.09549;57.95222;0.49282;0;0
114;4.3999;1.57143;2.78295;9.01794;-24.80314;-18.08165;992.24286;-16.79605;57.68652;0.48825;0;0
115;5.68088;2.67455;2.39907;4.92858;-23.94865;-7.52258;992.263;-23.44687;67.10535;0.64309;0;0
116;8.22188;3.66748;3.35547;-13.07677;-3.8681;2.91443;992.25281;-22.44031;67.79893;0.65075;0;0
117;8.45125;3.70101;4.31545;-5.75256;-4.78363;9.07897;992.25006;-21.30678;62.94981;0.57631;0;0
118;8.38897;3.14646;5.04907;31.66196;-7.71331;8.04137;992.26788;-17.81509;58.95751;0.50905;0;0
119;8.6339;3.47883;2.97878;13.71764;-4.29535;-2.21252;992.16058;-20.85159;70.96509;0.69522;0;0
120;8.55306;3.30336;3.34289;11.09313;-3.25775;-3.31115;992.242;-19.78474;68.65237;0.65746;0;0
121;8.60636;3.60999;3.24767;5.17273;-5.14984;-3.18908;992.23688;-21.42722;69.32564;0.67135;0;0
122;8.7435;4.09447;2.92129;22.81187;-0.87738;-5.14221;992.25708;-23.94855;71.52503;0.71039;0;0
123;7.05828;3.48842;1.40974;-0.19836;3.70025;-1.17493;992.26215;-25.85753;78.70502;0.82375;0;0
124;4.80832;2.35595;1.14863;0.71716;17.8604;10.91002;992.23138;-25.48082;76.56474;0.79025;0;0
125;4.49032;1.40435;2.70629;-13.56505;34.33987;17.92906;992.23584;-14.99535;58.92288;0.50139;0;0
126;4.97721;1.55347;3.72138;-11.97814;26.40531;20.12633;992.25177;-14.03467;53.21513;0.41906;0;0
127;8.15241;2.57993;4.97122;-7.58361;26.22221;26.1688;992.2439;-15.11977;58.6258;0.4974;0;0
128;8.95909;1.88584;6.49893;-20.33995;33.24124;26.71812;992.29938;-9.66956;54.04283;0.42116;0;0
129;9.57892;1.81038;7.56193;-15.3961;26.40531;8.22448;992.32507;-8.4379;51.71123;0.38708;0;0
130;9.58671;1.66606;7.91646;-2.5177;7.36236;4.13513;992.32251;-7.63243;50.45097;0.3689;0;0
131;9.57173;1.88165;7.4703;-13.56505;-2.6474;6.63757;992.36053;-8.8092;52.02959;0.392;0;0
132;9.49388;1.72474;7.8931;-6.91223;-10.88714;2.182;992.36566;-7.9525;50.26026;0.36685;0;0
133;8.67343;0.45215;8.07097;-0.80872;-2.03705;0.10681;992.33466;-2.18553;47.06061;0.31927;0;0
134;9.1148;1.29536;5.73298;-9.53674;12.61138;-8.92638;992.36505;-6.85963;57.83113;0.47139;0;0
135;7.95838;1.12348;7.06247;2.182;5.53131;-9.96398;992.35736;-6.02742;48.41333;0.33992;0;0
136;8.39376;1.65168;7.19422;12.06969;-1.6098;-10.20812;992.3548;-8.49751;49.40039;0.35637;0;0
137;9.9089;2.37332;7.9452;2.24304;7.30132;-7.52258;992.35992;-10.58437;51.27649;0.38508;0;0
138;9.71426;2.64461;8.63869;-8.92638;4.73785;-2.94494;992.36206;-11.49905;48.35397;0.34881;0;0
139;9.29386;2.5955;8.38717;-8.37707;-13.87786;-3.7384;992.33167;-11.71309;47.93558;0.34399;0;0
140;8.85608;2.13677;7.48407;2.48718;-25.7797;-11.48986;992.32654;-10.4416;49.79961;0.36523;0;0
141;7.75237;1.92537;5.41618;5.59997;-32.31046;-16.73888;992.28552;-11.50771;55.06;0.43879;0;0
142;5.9851;1.58521;3.59142;25.68052;-39.39053;-17.89854;992.27747;-12.79532;59.03371;0.49824;0;0
143;4.90953;1.60557;2.42782;7.43102;-26.20695;-16.06749;992.24902;-16.3383;63.6871;0.57463;0;0
144;4.7694;1.57802;2.20564;16.9525;-21.62932;-16.61681;992.26453;-16.71533;65.18153;0.59799;0;0
145;5.73058;2.64521;2.24277;14.02282;-29.19767;-11.18468;992.22351;-23.26033;68.62621;0.66517;0;0
146;8.95909;3.81779;1.61815;-1.4801;-11.92473;4.74548;992.2337;-22.75079;79.76189;0.83609;0;0
147;8.36681;3.51417;3.87768;-2.88391;1.8692;1.14441;992.20312;-20.86063;65.13416;0.60707;0;0
148;8.60755;3.77587;2.99734;-6.1798;-6.43157;-1.78528;992.26666;-22.50282;70.80074;0.69618;0;0
149;8.09073;3.09915;3.82378;18.60045;-5.76019;6.75964;992.21545;-19.10199;64.70398;0.59623;0;0
150;8.33806;3.98069;2.84583;7.36999;3.15094;-8.49914;992.28131;-24.31441;71.15494;0.70564;0;0
151;7.95778;3.91661;2.86739;19.02769;-2.76947;-3.37219;992.20477;-24.84564;70.18463;0.69239;0;0
152;7.70865;4.19927;2.09544;-5.08117;2.60162;17.50182;992.19946;-27.72969;74.79272;0.76781;0;0
153;6.71812;3.17221;2.46854;29.28159;51.49074;15.54869;992.19696;-23.90359;69.82439;0.68468;0;0
154;4.53704;2.0649;2.97279;12.86315;27.32084;24.33775;992.23773;-20.84091;56.7661;0.4878;0;0
155;4.35917;0.4743;2.56556;13.10729;2.96783;7.12585;992.22498;-5.35703;59.52138;0.495;0;0
156;6.45222;2.11102;1.76247;1.69372;31.41019;9.38415;992.23517;-17.5164;74.72193;0.74871;0;0
157;9.96399;2.47812;4.56159;-20.09581;64.36914;24.15464;992.19928;-12.74234;65.40134;0.59399;0;0
158;9.8035;2.88595;7.50144;-11.85607;33.60745;-0.99182;992.27814;-13.15881;52.5775;0.40827;0;0
159;9.36752;2.43441;7.55294;-21.80479;20.72905;1.26648;992.31146;-11.43701;51.12109;0.38479;0;0
160;9.72684;2.64401;8.2099;-8.92638;6.32476;0.71716;992.2832;-11.73483;49.83408;0.36848;0;0
161;9.8017;2.32242;8.41292;-2.94494;-8.50677;5.11169;992.31128;-10.19257;49.3601;0.35898;0;0
162;9.09923;2.36434;7.3098;1.20544;-1.36566;-0.62561;992.30615;-11.45143;51.22358;0.38618;0;0
163;8.83752;1.31272;7.07505;25.61948;3.39508;-1.60217;992.31873;-6.61435;51.32031;0.37919;0;0
164;8.28656;2.02837;6.43006;3.34167;-0.63324;-6.79016;992.40283;-10.94511;52.18986;0.3981;0;0
165;8.25542;2.28469;6.43545;3.95202;-2.95257;-11.00158;992.34125;-12.31265;52.06205;0.39933;0;0
166;9.92447;2.79433;7.42898;-1.96838;-5.69915;-11.734;992.31873;-12.70241;53.18325;0.41541;0;0
167;9.74481;3.0195;7.82184;-11.00158;1.44195;-0.56457;992.32062;-13.58473;51.24713;0.39155;0;0
168;9.55257;2.93147;8.23086;-11.9171;11.14654;-1.78528;992.30786;-13.08772;49.25054;0.3642;0;0
169;9.78553;3.13748;8.22488;3.58581;-25.71867;-13.9923;992.29004;-13.79016;49.95248;0.37512;0;0
170;7.9446;2.49729;6.27016;-14.72472;-27.54972;-8.62121;992.28961;-13.86067;51.71824;0.39851;0;0
171;7.12056;2.18528;4.81611;6.27136;-23.15519;-26.44346;992.21521;-14.26302;55.92689;0.45702;0;0
172;5.2437;2.37991;2.66976;7.36999;-28.70938;-13.62609;992.2254;-22.02116;63.01769;0.57939;0;0
173;4.26455;1.44926;2.31523;4.62341;-21.99553;-13.87023;992.23285;-16.629;61.50241;0.54283;0;0
174;5.0305;1.81697;2.56616;17.80699;-32.37149;-12.34435;992.21991;-17.83536;62.97301;0.56743;0;0
175;7.3128;3.50997;1.80559;-3.55529;-17.53996;4.31823;992.19653;-24.98473;76.13058;0.78272;0;0
176;7.9991;3.55968;3.00513;-2.7008;1.50299;8.04137;992.19653;-22.61575;69.40965;0.67536;0;0
177;8.40214;3.70341;3.13089;-16.86095;-3.99017;3.82995;992.23431;-22.44193;69.5631;0.67727;0;0
178;8.78422;3.06262;3.01711;12.06969;-5.45501;-3.55529;992.22412;-18.24957;71.044;0.6915;0;0
179;8.69798;4.0268;2.86799;7.55309;-4.11224;0.35095;992.18799;-23.73381;71.75105;0.71334;0;0
180;8.40753;3.56268;2.84224;9.50622;-1.30463;0.65613;992.20074;-21.87201;71.32175;0.7028;0;0
181;8.3716;3.52195;2.62485;11.88659;0.8316;-0.2594;992.20563;-21.87215;72.59161;0.72236;0;0
182;7.63738;3.66748;1.80739;7.98034;25.24564;4.50134;992.19757;-25.0464;76.68588;0.79137;0;0
183;5.46289;2.37691;1.89842;-1.35803;30.18949;12.68004;992.20013;-22.3423;70.83707;0.69639;0;0
184;3.83097;1.28158;2.55777;-0.4425;29.15189;2.24304;992.22266;-15.54764;56.27068;0.46505;0;0
185;5.25748;2.13497;3.55729;0.7782;12.61138;14.26696;992.2099;-18.58929;55.91714;0.46885;0;0
186;7.26189;2.48531;2.97339;11.94762;12.36724;27.57261;992.2171;-17.57399;67.73332;0.63877;0;0
187;9.25433;2.29247;5.56649;-6.66809;31.22709;25.55845;992.24731;-11.98465;58.97303;0.49579;0;0
188;10.03166;2.53262;7.58229;-11.06261;31.53226;3.0365;992.27771;-11.38728;52.91672;0.40889;0;0
189;10.11191;2.16072;7.24752;-11.55089;8.15582;2.24304;992.26984;-9.85274;54.36966;0.42604;0;0
190;9.76038;2.9117;8.04821;-11.67296;9.68169;-0.93079;992.27771;-12.96161;50.4917;0.38002;0;0
191;9.24056;2.41285;7.94161;-0.01526;-1.48773;2.91443;992.31018;-11.20131;49.32326;0.36063;0;0
192;9.06569;1.94393;6.79118;-1.60217;4.3106;0.59509;992.29956;-9.73798;53.16282;0.4091;0;0
193;8.90579;0.89291;5.96594;35.81235;2.78473;3.34167;992.31976;-4.76169;56.18209;0.44537;0;0
194;7.68589;1.47142;7.07385;7.18688;3.27301;-13.13781;992.23029;-8.01817;47.37453;0.32942;0;0
195;7.34933;2.10922;6.09769;8.52966;-3.80706;-13.07677;992.2915;-12.45497;50.31772;0.3765;0;0
196;10.32212;3.00573;7.64457;4.37927;-4.41742;-7.82775;992.29382;-13.17056;53.47631;0.4205;0;0
197;10.39159;3.66209;8.64588;1.75476;6.81304;-9.35363;992.30872;-15.15787;50.23928;0.38267;0;0
198;9.1106;2.87038;8.18415;-6.48498;-4.11224;-1.4801;992.30573;-13.19081;48.06631;0.34936;0;0
199;8.64588;2.36793;7.52839;-8.31603;-4.11224;-9.17052;992.30829;-11.67033;48.95232;0.35689;0;0
200;8.02725;2.75181;7.0972;4.37927;-13.51165;-10.87188;992.2796;-14.40356;48.51884;0.35845;0;0
201;7.65954;2.21941;5.09159;-6.42394;-21.81242;-6.41632;992.25641;-13.56654;56.3865;0.46186;0;0
202;4.91792;1.33248;4.14418;4.07409;-23.03312;-21.36992;992.22308;-11.70557;49.88019;0.36901;0;0
203;3.85552;0.954;2.57933;3.76892;-20.22551;-12.15361;992.20502;-11.62134;56.21761;0.45536;0;0
204;4.48434;1.83554;2.84643;8.22448;-30.05216;-12.6419;992.21503;-19.06419;57.5947;0.49349;0;0
205;6.82951;3.37223;2.84523;7.61413;-33.40909;-5.80596;992.20972;-24.50354;67.38299;0.65007;0;0
206;8.26201;3.95314;3.43272;-5.87463;-4.35638;8.35418;992.20673;-23.83833;67.43796;0.64905;0;0
207;8.05001;3.40278;3.919;4.01306;-5.02777;-2.94494;992.20398;-20.80977;64.04169;0.59084;0;0
208;8.45304;3.6555;2.71767;-6.60705;-11.55852;2.24304;992.20905;-22.37666;72.1773;0.71697;0;0
209;8.21589;2.90092;3.87229;18.78355;-4.17327;-4.53186;992.24176;-17.71295;64.76469;0.59387;0;0
210;8.37579;3.61777;3.08957;5.23376;3.0899;-4.04358;992.21606;-22.05983;69.75256;0.67926;0;0
211;7.99192;3.3884;3.19497;0.90027;6.44683;1.20544;992.21051;-21.48883;68.2097;0.65459;0;0
212;7.54037;3.82139;2.39847;-1.78528;14.86968;-0.2594;992.1925;-25.77809;72.35495;0.72705;0;0
213;5.53655;2.97099;1.7469;-23.26963;32.75296;15.85387;992.22797;-27.10089;72.48837;0.73214;0;0
214;3.30456;0.95939;2.87637;4.62341;22.7432;12.98522;992.24286;-12.35199;48.9629;0.35865;0;0
215;3.75611;0.94981;3.34109;8.9569;7.05718;5.17273;992.22522;-10.6993;48.34662;0.34693;0;0
216;7.08942;2.29607;4.06513;14.87731;11.81792;27.63364;992.24792;-15.69324;60.16971;0.52111;0;0
217;10.95213;3.54231;6.96246;-28.21348;38.79544;23.61296;992.25769;-15.26701;57.55517;0.48245;0;0
218;10.00172;3.27881;7.88232;-9.84191;30.12845;-1.53351;992.32404;-14.43869;51.75848;0.40057;0;0
219;8.86207;2.43141;7.32178;-2.76184;18.65385;4.3869;992.29828;-11.94267;50.43673;0.37686;0;0
220;9.52861;2.40985;8.3704;-0.4425;2.60162;14.70183;992.28021;-10.75833;48.70235;0.35163;0;0
221;9.43639;2.42662;7.89729;-0.80872;-5.39398;6.09588;992.32568;-11.15593;50.07411;0.37033;0;0
222;9.15013;1.81158;7.41461;-0.74768;7.66754;3.04413;992.33844;-8.7448;50.98119;0.37774;0;0
223;8.53629;1.97567;7.19242;-12.52746;5.89752;-4.15802;992.34827;-10.03703;49.8835;0.36552;0;0
224;6.74687;1.50975;6.42407;0.90027;1.99127;-12.70293;992.33551;-9.20526;46.40391;0.31931;0;0
225;7.19901;2.23917;6.59835;3.40271;3.15094;-10.81084;992.32251;-12.91443;47.49279;0.34141;0;0
226;11.12221;3.25845;9.89812;7.98034;-4.35638;-6.9046;992.35291;-12.3447;48.33278;0.35057;0;0
227;9.63701;3.09915;8.76805;6.02722;3.27301;-11.97051;992.36798;-13.3802;47.70311;0.34529;0;0
228;7.9991;2.82187;8.00389;-5.56945;-2.95257;0.41962;992.31171;-14.00249;44.98285;0.3137;0;0
229;8.30872;2.36853;7.09601;4.2572;-10.27679;-6.29425;992.32654;-12.23076;49.50123;0.36531;0;0
230;7.67332;2.33679;5.89946;0.10681;-15.5258;-2.69317;992.24493;-13.57309;52.44589;0.40751;0;0
231;5.45271;1.6421;4.73945;15.18248;-12.59612;-17.46367;992.24988;-12.80542;49.00307;0.3603;0;0
232;3.76629;1.09294;3.389;18.11217;-27.18351;-11.6043;992.2749;-12.17302;48.01833;0.34615;0;0
233;4.17113;1.51514;2.97878;13.90074;-31.82218;-16.79228;992.23627;-16.46793;54.46777;0.44268;0;0
234;6.03301;2.89494;3.20814;16.15904;-33.04288;-3.05938;992.21332;-22.96101;61.99752;0.56769;0;0
235;7.72003;3.59082;4.06992;1.08337;-6.91986;3.53241;992.24371;-22.36493;62.20227;0.56873;0;0
236;7.89849;3.10454;4.88678;3.58581;-5.02777;2.49481;992.25604;-18.48236;58.25503;0.501;0;0
237;8.35303;3.0189;3.86151;19.51597;-9.23919;-2.99835;992.24835;-18.16235;65.18945;0.60129;0;0
238;8.1075;3.70042;3.6531;9.68932;-5.57708;-0.67902;992.18884;-22.59354;65.74445;0.62072;0;0
239;8.09372;3.91361;3.41715;9.93346;-2.6474;0.05341;992.20947;-24.01115;67.11064;0.6447;0;0
240;8.04881;3.96452;2.72126;-5.14221;7.54546;5.30242;992.22968;-25.01433;71.31985;0.70976;0;0
241;6.24861;3.57525;2.13557;-10.5133;15.48003;10.1242;992.242;-28.43204;71.13125;0.71561;0;0
242;4.0262;1.64749;2.45357;-5.50842;32.63089;18.18083;992.22668;-19.26054;58.64185;0.50874;0;0
243;4.68017;1.26062;3.1261;-5.50842;20.66801;-5.74493;992.24963;-12.62494;56.2592;0.45799;0;0
244;5.7755;2.09664;4.15376;9.9945;1.99127;12.3825;992.24664;-16.42116;54.27617;0.43994;0;0
245;8.53509;2.82008;4.873;-0.01526;10.59722;18.66911;992.25922;-16.01013;60.27634;0.52341;0;0
246;9.15911;3.04465;6.6205;-15.94542;32.20364;8.049;992.27448;-15.07787;54.13937;0.43435;0;0
247;9.54957;2.87577;7.80627;0.71716;19.26421;-4.34112;992.30743;-13.12431;50.73584;0.38363;0;0
248;8.92376;2.97159;7.76794;-0.19836;9.37652;3.1662;992.30255;-14.09923;48.96113;0.36321;0;0
249;8.18535;2.756;7.61642;-4.34875;4.24957;13.7863;992.32739;-13.84703;47.06199;0.33859;0;0
250;9.65857;2.57454;7.23195;-11.42882;7.30132;12.80974;992.35016;-12.04465;53.1756;0.41383;0;0
251;9.749;2.83146;8.45245;-4.47082;28.23637;-11.90947;992.37311;-12.37692;49.0745;0.36015;0;0
252;6.84209;0.85938;8.50994;11.64245;-7.83538;-4.95147;992.3421;-4.50002;38.79967;0.22306;0;0
253;6.15039;1.63911;6.31149;9.93346;-2.52533;-13.43535;992.29065;-10.53636;44.25937;0.29589;0;0
254;7.30322;2.56316;6.72471;4.68444;-9.54436;-3.48663;992.32678;-14.4767;47.36153;0.34414;0;0
255;11.00722;3.70042;9.55437;2.79236;-5.21087;-3.36456;992.34949;-14.24524;49.04174;0.36465;0;0
256;9.69211;3.80162;9.04533;7.00378;4.1275;-14.53398;992.36182;-16.00067;46.97695;0.34414;0;0
257;8.07037;3.40398;7.60984;-5.20324;-1.97601;-0.98419;992.31592;-17.05997;46.6823;0.34414;0;0
258;7.84998;2.90811;7.61403;-5.87463;-4.11224;1.33514;992.31018;-14.89154;45.87416;0.32715;0;0
259;8.2111;3.08897;7.1511;-1.35803;-14.36614;-12.09258;992.33569;-15.8381;48.94718;0.36818;0;0
260;7.19183;3.03507;5.21556;-4.10461;-15.70891;-12.70293;992.29956;-18.862;54.05015;0.44445;0;0
261;4.83048;1.97387;4.91193;-1.78528;-27.8549;-13.37432;992.2384;-15.98799;44.52102;0.31459;0;0
262;4.41726;1.72474;2.88116;6.5155;-27.12247;-12.825;992.25604;-18.10973;56.88558;0.48075;0;0
263;3.81061;1.75708;2.8632;6.39343;-29.44181;-3.4256;992.24005;-20.23586;53.07971;0.43637;0;0
264;6.71572;3.36685;3.1794;10.54381;-31.21183;-4.95147;992.2962;-24.37637;64.6659;0.61025;0;0
265;7.90089;3.84594;3.58184;5.53894;-16.13616;0.41962;992.24005;-23.90973;65.61301;0.62254;0;0
266;7.63858;4.18131;3.72018;-15.82335;-19.12687;-3.12042;992.24731;-26.20322;64.03278;0.60714;0;0
267;8.20511;3.31894;3.18898;23.54429;-7.40814;-7.0877;992.31635;-20.65753;68.76099;0.66103;0;0
268;8.20451;4.07411;2.96201;12.13073;3.15094;-3.85284;992.18781;-25.03555;70.14931;0.69233;0;0
269;7.97095;4.39331;2.97099;6.5155;5.10406;0.17548;992.24945;-27.31438;69.5582;0.68969;0;0
270;7.42658;4.2394;2.49369;1.44958;8.76617;9.14764;992.2182;-28.41998;71.43901;0.72005;0;0
271;6.44444;3.85073;1.28877;-18.692;30.25052;16.96013;992.25391;-30.36717;78.69109;0.83081;0;0
272;3.99147;1.89183;2.16851;-12.52746;35.43851;20.31706;992.25391;-22.61046;61.48539;0.55931;0;0
273;4.42026;0.86058;2.55657;-0.13733;36.35403;6.8283;992.21265;-9.56621;59.9559;0.5063;0;0
274;6.28633;2.26133;4.43882;3.46374;24.26908;17.32634;992.22284;-16.37543;54.77383;0.44659;0;0
275;8.49377;2.49789;5.72879;-13.74816;25.97807;24.22331;992.30402;-13.70204;56.00154;0.45674;0;0
276;9.03754;2.89913;7.40083;-13.56505;29.70121;12.5656;992.3017;-13.93851;50.686;0.38509;0;0
277;9.07407;2.38709;8.19373;7.18688;14.3814;-2.75421;992.32678;-11.04782;47.9185;0.34223;0;0
278;9.15193;3.00273;8.04162;-5.02014;5.83648;8.59832;992.30658;-13.84567;48.69485;0.35911;0;0
279;8.91897;3.19078;8.41412;-6.85119;-0.93841;12.99285;992.32935;-14.58636;46.66833;0.3359;0;0
280;10.01969;2.55418;8.13924;-15.88439;3.33404;14.33562;992.33423;-11.19203;50.9122;0.38148;0;0
281;8.96807;0.8486;8.81836;24.15464;6.93511;-12.6419;992.36713;-3.85992;45.48227;0.30046;0;0
282;6.44204;1.12049;6.89479;8.46862;5.10406;-13.92363;992.34973;-6.77193;43.05573;0.27441;0;0
283;6.10548;1.51215;6.58816;10.48278;-5.69915;-14.16777;992.341;-9.55605;42.82232;0.27671;0;0
284;9.53999;3.30456;7.99072;1.63269;-7.04192;-5.01251;992.34125;-14.87146;50.05039;0.37939;0;0
285;10.67066;3.62616;10.18617;-0.2594;2.59399;-10.50567;992.36908;-13.80997;46.33069;0.32947;0;0
286;8.65786;3.86391;8.13624;-0.80872;6.01959;-11.05498;992.39923;-18.0155;46.779;0.34876;0;0
287;7.77453;3.24527;8.46023;0.22888;-1.73187;-2.32696;992.32489;-15.77206;42.58144;0.29141;0;0
288;7.5757;2.74642;7.87334;7.79723;-16.68547;-9.83428;992.32739;-14.10965;43.89629;0.30114;0;0
289;7.07145;2.63024;6.37976;8.59069;-18.69963;-12.15361;992.29913;-15.43849;47.9437;0.35431;0;0
290;5.4557;2.8608;5.1383;13.04625;-29.56388;-11.48223;992.26599;-20.89297;46.71609;0.35947;0;0
291;4.54003;2.21761;3.27821;17.31871;-26.57316;-10.5667;992.22479;-21.60414;54.16814;0.45572;0;0
292;4.20107;2.13497;3.14107;15.85387;-23.46037;-12.03154;992.23688;-22.14679;53.21514;0.44537;0;0
293;5.47367;3.06142;2.74402;17.50182;-31.57804;-8.61358;992.2265;-26.56459;63.3748;0.59916;0;0
294;7.41999;4.5029;2.55238;0.65613;-20.53068;-5.62286;992.22162;-29.8497;71.01745;0.71787;0;0
295;7.74458;4.65441;2.87517;-23.57481;-15.28166;3.89862;992.22882;-29.3976;69.63258;0.69678;0;0
296;8.06019;3.99446;3.1261;17.07457;-8.68987;-7.69805;992.22839;-24.79906;68.80148;0.67174;0;0
297;7.85358;4.94247;2.1212;-1.54114;0.6485;0.17548;992.17694;-31.28105;74.88546;0.77716;0;0
298;7.55414;4.58614;2.98237;1.26648;-2.28119;4.50897;992.22308;-29.4529;68.45592;0.68024;0;0
299;8.04462;4.54602;2.74881;4.13513;7.30132;2.98309;992.23053;-28.13542;71.13492;0.71487;0;0
300;7.02235;4.28072;2.23738;-2.39563;4.79126;1.70135;992.21991;-30.1488;72.3277;0.73749;0;0
301;4.73706;2.77097;1.40076;-5.9967;23.468;7.74383;992.19696;-29.29004;73.52696;0.75269;0;0
302;3.1267;1.31871;2.23558;-15.3961;21.27073;1.88446;992.23755;-18.93623;54.43534;0.44986;0;0
303;5.05805;2.60029;4.08309;-7.58361;19.25658;12.13836;992.26282;-21.80234;51.08794;0.4168;0;0
304;8.30393;3.66089;4.47715;-24.61241;22.00315;25.44401;992.25006;-21.20891;61.66821;0.55757;0;0
305;8.8501;3.37822;6.59775;-21.01134;36.1633;8.11004;992.27283;-17.01582;53.29547;0.42848;0;0
306;9.08186;3.75611;7.33016;-10.14709;23.10942;-5.37872;992.28552;-17.83992;51.09225;0.40213;0;0
307;8.54707;3.69503;8.12786;-16.31163;11.63482;6.34002;992.30066;-17.39468;46.44012;0.3424;0;0
308;9.14713;4.00165;8.51473;-14.96886;6.32476;6.03485;992.26984;-17.75575;47.05067;0.3511;0;0
309;8.5321;3.71898;7.2056;-48.84334;5.95855;10.55144;992.32318;-18.4184;49.81795;0.38783;0;0
310;8.30812;3.75192;6.48815;-18.38683;14.44243;-1.53351;992.42029;-19.59178;52.01225;0.42014;0;0
311;7.16188;2.8105;6.90137;-18.14268;7.11822;-8.97979;992.30487;-15.7791;46.06123;0.33226;0;0
312;6.32766;2.44219;6.82232;-3.18908;-2.46429;-8.61358;992.31506;-14.70613;42.8457;0.29083;0;0
313;7.18045;3.21952;6.8367;1.81579;-3.50189;-4.21905;992.30444;-17.98994;46.40482;0.34415;0;0
314;9.09503;3.82857;8.64888;-3.86047;5.10406;-0.37384;992.31445;-16.96413;46.44035;0.34088;0;0
315;9.13396;4.05794;9.13456;-8.57543;7.88879;-0.85449;992.31421;-17.43936;44.99812;0.32537;0;0
316;8.45963;4.25257;9.04113;-2.9602;-0.28992;-1.28174;992.31958;-18.95531;43.09692;0.3094;0;0
317;7.5236;2.88296;7.8949;-0.7019;-1.38855;-8.91113;992.30847;-14.80762;43.62051;0.30012;0;0
318;7.08942;3.24587;7.68949;22.30833;-11.70348;-13.61083;992.29065;-17.24153;42.6749;0.29783;0;0
319;6.31688;2.76318;5.91324;11.93236;-23.23912;-12.6953;992.2522;-17.71054;46.89028;0.34899;0;0
320;4.62387;2.24097;4.27952;12.1765;-25.92466;-6.53076;992.26453;-19.57993;47.21489;0.36003;0;0
321;4.11783;2.13257;3.50279;19.68382;-18.23424;-10.49804;992.22369;-21.52798;49.61418;0.39727;0;0
322;5.09458;2.77217;3.5519;15.89964;-19.76011;-6.83593;992.23114;-24.05432;55.11616;0.47775;0;0
323;5.81982;3.55429;4.27054;25.54319;-16.9525;0.18311;992.23114;-26.21478;53.72905;0.46925;0;0
324;7.05109;3.92679;3.96272;15.35033;-15.48766;-7.14111;992.21033;-25.89603;60.66397;0.55926;0;0
325;7.82663;4.53644;4.20826;1.86157;-7.30895;-1.2207;992.24329;-27.04434;61.73376;0.57821;0;0
326;7.36909;4.2921;4.43703;-0.7019;-17.25768;-1.09863;992.22009;-26.51817;58.94731;0.53844;0;0
327;7.26129;4.58015;3.55729;-2.04468;-12.61901;3.05176;992.23517;-29.52904;63.89991;0.61721;0;0
328;7.49246;4.38792;2.83445;-1.00708;-0.28992;-1.70898;992.23712;-28.7121;69.27802;0.68967;0;0
329;8.82374;6.07853;2.37512;-3.63159;-9.32311;0;992.23499;-33.63208;74.93458;0.78359;0;0
330;6.88221;4.73287;2.81349;-0.76294;-1.93786;8.1787;992.24243;-32.47913;67.76495;0.68078;0;0
331;5.58626;3.79084;2.23019;9.42992;15.57921;-6.7749;992.21692;-32.22052;68.23672;0.68633;0;0
332;4.6077;2.89074;2.98596;-5.76782;31.81455;11.96288;992.25519;-27.76625;57.05526;0.51879;0;0
333;4.21664;1.36243;3.41236;-10.65063;15.33507;-3.78418;992.24707;-14.09911;51.01814;0.38988;0;0
334;5.15267;2.67276;3.1812;-0.39673;0.80872;4.21142;992.23669;-23.81526;58.30935;0.5194;0;0
335;7.96377;3.96092;4.15196;-23.89524;17.59337;23.43748;992.2594;-23.79883;62.46442;0.57701;0;0
336;8.94651;4.84905;7.22716;-21.94212;31.50937;9.2163;992.26709;-22.86133;51.06808;0.42097;0;0
337;9.11899;3.96811;7.81465;-16.6931;21.62169;4.63867;992.28491;-18.28448;49.40459;0.38214;0;0
338;9.15312;4.025;8.80458;-16.32689;28.33555;6.89697;992.31018;-17.58441;46.11192;0.33914;0;0
339;8.73811;4.10166;8.97825;-6.31713;16.18956;9.52148;992.33337;-18.12772;44.2234;0.31894;0;0
340;8.39495;3.8154;6.39353;-35.06467;22.10997;8.60595;992.32251;-19.87836;52.70739;0.43021;0;0
341;8.01827;3.21533;6.59775;-3.69262;8.13293;-6.59179;992.32782;-17.20511;50.5511;0.39304;0;0
342;6.66722;2.8099;7.28705;2.9602;0.2594;-8.42284;992.276;-15.88065;42.45667;0.29037;0;0
343;5.79346;2.46854;6.64566;11.68822;-6.63757;-7.08007;992.31763;-15.64192;41.08084;0.27413;0;0
344;8.02306;3.61957;7.69787;15.4724;-7.18688;-3.17383;992.32208;-18.032;46.18499;0.34167;0;0
345;9.32799;4.31845;9.2699;0.39673;-6.75964;-0.12207;992.34503;-18.17915;45.17896;0.33029;0;0
346;8.55485;4.59992;8.66385;-3.63159;3.7384;-0.85449;992.34442;-20.6963;44.63732;0.33435;0;0
347;8.16798;3.88367;8.37459;-5.2185;3.79944;2.31933;992.33423;-18.36546;44.28444;0.32058;0;0
348;7.51881;2.94644;8.44526;8.6975;-15.79283;-4.63867;992.31128;-14.60526;41.67865;0.27725;0;0
349;6.90077;3.38182;6.97324;12.54271;-15.60973;-10.31493;992.3183;-19.01971;44.70075;0.32801;0;0
350;5.85215;2.20923;5.72879;6.4392;-19.57701;-11.6577;992.28491;-15.09709;45.61032;0.32461;0;0
351;4.27952;2.0152;4.32863;14.06859;-21.59117;-15.19774;992.29211;-18.31798;44.67315;0.32491;0;0
352;3.99087;2.01041;3.71838;21.08763;-20.06529;-10.37597;992.26666;-20.23218;47.02429;0.36037;0;0
353;4.81491;2.83924;3.72437;17.30345;-20.79771;-5.12695;992.22839;-25.00558;52.27778;0.44552;0;0
354;6.33065;3.63753;3.41475;9.55199;-18.84459;-2.92968;992.23328;-26.82629;61.65757;0.57635;0;0
355;7.58109;4.10525;5.27125;23.28489;3.67736;5.00488;992.25348;-23.96994;55.18851;0.47836;0;0
356;7.08223;4.46218;4.62028;17.60863;-10.66588;-3.11279;992.2915;-27.82014;56.88053;0.51677;0;0
357;7.64517;4.75682;3.69023;10.40649;-8.9569;-0.30518;992.23755;-29.26358;64.23393;0.62078;0;0
358;7.2038;4.26335;3.29558;6.50024;-5.96618;3.17383;992.23499;-28.2881;65.41695;0.63367;0;0
359;8.22428;5.18681;3.09496;-3.20434;-3.76892;2.80761;992.25031;-30.55161;69.37769;0.69669;0;0
360;6.90796;4.35857;2.61107;-2.65503;-5.4779;8.1787;992.25983;-30.54893;69.29441;0.69551;0;0
361;4.66579;3.15964;1.7499;-6.80541;16.49474;13.12255;992.2171;-32.37732;69.44154;0.70343;0;0
362;3.99147;1.80739;2.00022;-18.46312;29.80039;10.13183;992.26239;-22.03938;63.38339;0.58472;0;0
363;4.16514;1.62174;3.10454;-17.48656;27.9083;7.14111;992.23962;-17.3374;53.30051;0.42953;0;0
364;7.23375;3.2303;4.06273;-11.32201;23.02549;9.52148;992.28021;-21.27368;60.67987;0.54368;0;0
365;9.03994;4.26934;6.54505;-34.69846;37.85703;13.12255;992.30597;-20.93376;54.09491;0.45226;0;0
366;8.41053;3.7082;8.47221;-18.40208;23.2086;-4.21142;992.31592;-17.25595;44.79066;0.32226;0;0
367;8.3159;3.63095;7.80567;-5.95092;5.08117;2.50244;992.30811;-17.65907;46.81277;0.34786;0;0
368;8.67582;3.73814;8.89202;-9.49096;9.17052;5.7373;992.34631;-16.74646;44.29494;0.3146;0;0
369;8.30093;4.00165;8.51892;-6.13403;4.65393;9.94872;992.33612;-18.5945;44.25748;0.32118;0;0
370;8.71355;3.43092;7.96676;-13.27514;13.25988;7.44628;992.34656;-16.20357;47.56347;0.35203;0;0
371;7.80028;2.75181;8.97945;-13.39721;2.82287;-0.97656;992.38184;-13.02646;40.98022;0.26449;0;0
372;6.16956;2.30146;6.42767;-3.44848;-0.28992;-13.18358;992.31;-14.48381;43.82619;0.30148;0;0
373;6.05098;2.22241;6.63068;7.78198;-2.79236;-10.00976;992.3457;-13.90546;42.38271;0.28299;0;0
374;8.04102;3.57944;7.58289;1.00708;-3.15857;2.31933;992.36139;-17.94495;46.67958;0.3473;0;0
375;9.38249;4.37594;9.50167;4.11987;-0.90027;-5.06591;992.38391;-18.14412;44.63842;0.32383;0;0
376;7.94281;3.96571;8.39975;-2.10571;4.40979;-1.89209;992.34015;-18.9341;43.39843;0.31272;0;0
377;8.09672;3.45668;8.26859;-2.59399;-5.41687;1.40381;992.34271;-16.63052;44.39828;0.31539;0;0
378;7.6296;2.8596;8.25063;5.70678;-13.59557;-4.02832;992.32208;-14.2769;42.76048;0.28848;0;0
379;7.08223;3.29199;7.39065;-2.04468;-16.46422;-0.67139;992.29871;-17.82791;43.77921;0.31266;0;0
380;6.68758;2.65179;6.17135;8.39233;-9.50622;-12.39013;992.28619;-16.24651;47.29892;0.34891;0;0
381;4.58255;2.02538;3.84594;-5.0354;-9.62829;-17.63914;992.2605;-18.70337;49.99469;0.39109;0;0
382;3.6016;1.35524;3.10514;8.02612;-19.02769;-11.10839;992.24731;-15.90717;49.23357;0.37203;0;0
383;4.6628;2.62365;3.48842;11.9934;-26.29087;-8.85009;992.2392;-24.25365;53.19845;0.45383;0;0
384;6.47378;3.71838;3.92858;9.12475;-21.53013;-1.95312;992.22137;-26.1526;58.74872;0.53432;0;0
385;7.07684;4.26575;4.72867;-0.76294;-0.16785;5.7373;992.24176;-26.61943;56.24955;0.50331;0;0
386;7.58349;4.24119;4.59153;1.19018;-3.09753;3.35693;992.24176;-25.56694;58.80658;0.53279;0;0
387;7.6811;4.53344;4.35139;16.6931;-1.26648;5.85937;992.2439;-27.18181;60.4682;0.56153;0;0
388;7.72482;4.27533;4.27773;8.08715;-4.4403;-2.19726;992.17206;-25.83504;61.0239;0.56397;0;0
389;7.65535;4.06153;3.93098;3.69262;-9.38415;-0.48828;992.21838;-25.26553;62.81976;0.58691;0;0
390;7.45413;4.12681;4.00165;7.84301;-4.01306;1.46484;992.20288;-26.00235;61.77149;0.57489;0;0
391;6.06535;3.86331;2.14575;-13.33617;8.62121;8.23974;992.23071;-30.9839;70.51766;0.71407;0;0
392;3.42074;1.9098;2.48112;-6.19506;21.9879;11.04735;992.22308;-24.31995;54.04606;0.46497;0;0
393;3.81181;1.36662;3.59561;-10.10131;25.28379;1.28174;992.23541;-14.61726;46.67175;0.33603;0;0
394;5.64554;2.76738;4.27174;6.74438;8.98742;9.76562;992.23541;-21.35042;52.8868;0.43802;0;0
395;8.35782;3.75551;5.02811;-16.57103;20.46202;20.32469;992.23541;-21.05838;58.96867;0.51892;0;0
396;8.69499;4.03219;7.37807;-29.99875;33.21836;8.97216;992.26093;-19.47327;49.68395;0.39001;0;0
397;8.35902;3.26025;8.56563;-0.57983;15.94542;-1.28174;992.27899;-15.23787;44.30059;0.30948;0;0
398;8.55785;3.44051;8.59558;-15.4724;16.4337;0.42725;992.27875;-15.83607;44.87398;0.31824;0;0
399;8.12965;3.78725;8.92016;-2.28882;13.80919;2.50244;992.31146;-17.42186;42.34541;0.29481;0;0
400;8.85968;3.67167;8.83932;-2.47192;8.4381;7.50732;992.32678;-16.3506;45.06591;0.32227;0;0
401;7.62181;2.95303;8.16738;1.98364;6.60705;-6.83593;992.33466;-14.8069;43.02103;0.29317;0;0
402;6.0372;2.09664;7.96616;-15.41136;-4.50134;-1.40381;992.33679;-11.84668;37.15688;0.21999;0;0
403;5.95696;2.56676;6.32466;1.43432;-7.7362;-5.00488;992.36737;-16.45853;43.2851;0.30188;0;0
404;6.28933;2.79253;6.75944;-0.5188;-4.19616;-6.16455;992.29297;-16.82823;42.93668;0.29924;0;0
405;7.93143;3.47404;8.38118;-0.88501;-4.4403;0.36621;992.35144;-16.75526;43.42071;0.30451;0;0
406;9.13037;4.06932;10.12569;6.13403;-0.35095;-2.80761;992.35419;-16.61841;42.04109;0.28836;0;0
407;8.70397;4.25736;9.29865;-0.76294;3.31115;-1.77002;992.34125;-18.48268;43.10804;0.30759;0;0
408;7.46132;3.26504;9.05671;4.11987;-2.79236;2.01416;992.31805;-15.54901;39.48322;0.25644;0;0
409;7.07684;2.94464;8.91657;21.27073;-9.81139;-5.55419;992.3053;-14.50301;38.43809;0.24168;0;0
410;6.72291;2.52843;7.28944;5.58471;-16.40318;-2.99072;992.32294;-14.30428;42.68475;0.28769;0;0
411;5.65692;2.35116;5.63776;2.10571;-22.20152;-11.96288;992.297;-16.4039;45.09721;0.32283;0;0
412;4.25796;2.11102;4.28132;15.77757;-23.66636;-15.62499;992.26898;-19.27013;44.84329;0.33069;0;0
413;4.13639;1.82236;3.50099;20.29417;-23.42222;-11.6577;992.24072;-18.58699;49.75583;0.38765;0;0
414;5.20537;2.82607;3.9717;12.66478;-28.36606;-6.83593;992.24347;-23.3461;52.65635;0.44307;0;0
415;6.48157;3.59322;3.83875;1.5564;-14.38903;-0.30518;992.2558;-25.50087;59.36356;0.54006;0;0
416;7.37688;3.97889;5.50002;23.22386;0.93079;0.24414;992.24817;-23.38438;53.29269;0.45137;0;0
417;7.60684;4.27234;4.75443;13.51927;-2.91443;-4.45556;992.25067;-25.46701;57.9938;0.52149;0;0
418;7.59187;4.12442;4.20406;9.9182;-5.4779;0;992.2475;-25.42003;61.02413;0.56246;0;0
419;7.44575;4.23281;4.22562;5.15747;-5.05065;5.24902;992.23224;-26.30847;60.42414;0.55755;0;0
420;7.41041;4.14957;3.71658;1.5564;-3.0365;3.84521;992.24493;-26.58978;63.36461;0.5991;0;0
421;9.39986;4.72328;3.42494;17.36449;-9.14001;-26.00095;992.24005;-25.27303;69.98027;0.69042;0;0
422;5.50241;3.40996;1.94752;-20.23314;2.39563;5.49316;992.23413;-30.29382;70.50909;0.7119;0;0
423;3.08598;2.25534;2.3865;-29.44944;13.68712;25.63474;992.21881;-30.03348;52.28393;0.47039;0;0
424;4.2933;2.02238;3.75551;-18.21898;26.50449;25.2075;992.24176;-19.52205;48.82256;0.37946;0;0
425;6.54505;2.4889;4.58614;5.95092;22.65928;14.28221;992.2594;-17.29807;54.9809;0.45211;0;0
426;8.2135;2.73085;4.52087;-9.30785;34.62217;6.7749;992.25177;-16.23952;61.17077;0.53704;0;0
427;8.65367;3.92799;7.28764;-11.62719;28.51865;9.09423;992.31787;-19.1467;49.89775;0.39148;0;0
428;8.1596;3.28061;8.17936;-4.1809;6.60705;2.56347;992.32037;-15.85199;44.93069;0.31896;0;0
429;8.7932;3.22372;7.55414;-4.30297;5.69152;-2.38037;992.3302;-15.54056;49.3345;0.37218;0;0
430;8.80638;3.88726;9.23397;-5.88989;14.11437;3.41797;992.33801;-16.94302;43.64223;0.30775;0;0
431;9.28727;3.3399;9.73043;6.56127;7.76672;4.5166;992.3302;-13.94438;43.6651;0.29793;0;0
432;8.28416;3.1794;7.76434;-12.35961;7.76672;-6.53076;992.28387;-15.6436;46.85519;0.34149;0;0
433;6.10607;2.20324;6.95348;-1.98364;2.76184;-13.54979;992.32489;-13.39207;41.28743;0.26902;0;0
434;5.40001;2.09185;6.14081;0.64087;1.72424;-7.38525;992.32208;-14.34909;41.32724;0.27248;0;0
435;6.34922;2.98656;6.57379;2.34985;-0.9613;-5.61523;992.33185;-18.09644;44.00441;0.31629;0;0
436;8.86387;4.19508;8.67642;9.55199;-0.53406;-6.28662;992.36505;-18.68634;45.61227;0.33736;0;0
437;9.39627;4.35019;10.27301;-0.03052;0.19836;-2.62451;992.35718;-17.35229;42.44777;0.29569;0;0
438;8.44825;4.32743;9.67953;7.35473;1.66321;-2.86865;992.34906;-18.61469;41.11432;0.28601;0;0
439;7.54336;4.03219;9.54239;6.62231;-7.36999;-0.42725;992.30829;-18.3398;38.32675;0.25536;0;0
440;6.28633;3.36744;7.19482;7.41577;-26.41294;-4.27246;992.32806;-19.41528;41.14471;0.28977;0;0
441;6.43665;2.97758;6.20189;16.26585;-25.98569;-7.26318;992.28192;-18.42418;46.06413;0.34171;0;0
442;5.79466;2.69372;5.10297;4.11987;-30.56333;-0.61035;992.29169;-19.23227;48.63181;0.37599;0;0
443;4.77539;3.23929;3.00333;4.11987;-17.31871;-8.23974;992.2218;-29.86482;57.83343;0.53832;0;0
444;3.89385;2.09904;3.25665;11.87133;-11.82555;-9.94872;992.23944;-22.46536;50.0923;0.40713;0;0
445;5.04667;3.04765;3.00213;12.96996;-14.45006;-5.49316;992.22858;-27.42947;59.2527;0.54622;0;0
446;6.71692;3.26444;5.40719;36.1633;-18.11217;6.53076;992.26709;-20.7355;51.16556;0.41355;0;0
447;7.51222;3.71179;4.46038;14.61791;-4.92858;4.45556;992.13574;-23.01845;59.30028;0.53011;0;0
448;7.86675;3.84594;4.32623;15.35033;-9.20104;-4.63867;992.19971;-23.18933;61.19188;0.55705;0;0
449;7.42718;4.26335;2.91769;-4.91333;-14.75524;1.58691;992.19928;-28.11441;68.55312;0.6775;0;0
450;7.19422;4.2891;2.43261;-0.76294;-3.82995;-1.89209;992.20117;-29.45665;71.31788;0.72109;0;0
451;8.82374;4.94487;3.67107;-0.33569;10.26916;1.46484;992.22412;-27.35753;67.41051;0.65884;0;0
452;7.73859;4.79275;4.33761;9.79613;7.0343;5.24902;992.20819;-28.38019;60.72863;0.56982;0;0
453;5.05745;3.26863;2.5446;-6.92748;7.2174;3.84521;992.18713;-29.99962;63.2913;0.61076;0;0
454;4.00225;1.86847;2.76259;-9.7351;31.14316;11.59667;992.20459;-21.01746;55.38428;0.46972;0;0
455;4.6646;1.64869;3.58962;-12.11547;30.47178;5.49316;992.21179;-15.64798;52.42004;0.41274;0;0
456;5.84856;2.73384;4.6083;-6.01196;27.29795;17.33397;992.20929;-20.16113;51.76409;0.41902;0;0
457;7.55474;3.47704;6.11027;-29.14426;26.8707;22.21678;992.24457;-19.68977;51.0341;0.40791;0;0
458;7.8949;3.22851;7.7332;-14.86205;25.65;9.27734;992.23627;-16.28505;45.59278;0.32832;0;0
459;8.23386;2.95183;8.24464;-11.87133;14.23644;4.33349;992.25641;-14.21573;44.96252;0.3141;0;0
460;8.70158;2.12359;10.34667;-12.05443;14.41954;1.40381;992.2486;-8.927;40.06392;0.24394;0;0
461;8.59019;3.73635;8.72553;-1.61743;24.36827;-10.00976;992.42218;-16.96939;44.55217;0.31841;0;0
462;10.18498;4.06333;10.38859;-25.17698;23.57481;-5.00488;992.22986;-15.60489;44.43296;0.31225;0;0
463;8.03623;3.38421;11.60909;-6.01196;-1.44958;-3.60107;992.34698;-13.47887;34.69239;0.20043;0;0
464;7.27687;3.26025;10.13886;-2.16675;-13.83971;-1.77002;992.29022;-14.64067;35.66776;0.21397;0;0
465;7.69967;3.15305;9.35554;6.19506;-11.39831;-4.08935;992.30786;-14.58636;39.45459;0.25276;0;0
466;6.66242;2.29487;8.4788;11.07787;-6.82067;-11.04735;992.26898;-12.01436;38.15937;0.23093;0;0
467;5.97193;2.78594;7.19781;14.31273;-17.44078;-17.82225;992.25348;-16.58755;39.68203;0.26243;0;0
468;5.92102;3.28121;6.52948;3.38745;-30.44126;-0.12207;992.25537;-20.41818;42.2022;0.30576;0;0
469;5.07901;2.89314;5.38803;4.05883;-37.70444;-0.18311;992.24457;-21.34183;43.30896;0.32223;0;0
470;5.11195;3.08118;4.54422;9.85717;-19.51597;-7.32421;992.22668;-24.25075;48.3648;0.39424;0;0
471;5.20717;3.45548;3.42134;-0.5188;-22.99498;-3.60107;992.23138;-29.01271;56.69331;0.51979;0;0
472;5.34551;3.04346;2.5422;16.08275;-17.07457;6.34765;992.29742;-27.2106;64.56532;0.61805;0;0
473;5.58146;3.11592;3.10694;31.28049;-26.10777;-5.43212;992.11005;-26.00226;60.89739;0.56286;0;0
474;7.53438;4.00344;1.98465;-7.72094;-9.01794;9.76562;992.18927;-27.19543;75.24277;0.77343;0;0
475;6.05038;3.26025;2.63024;-4.1809;11.12365;9.09423;992.19397;-26.29738;66.50433;0.64258;0;0
476;4.75802;2.34218;2.69791;-14.06859;23.3917;11.41356;992.19904;-23.18114;60.44576;0.54658;0;0
477;4.44122;2.32361;3.09616;-12.35961;30.89902;3.35693;992.20117;-23.22862;55.11806;0.47447;0;0
478;5.77071;2.97339;4.61968;-9.42992;21.25548;6.34765;992.18842;-21.912;51.32135;0.4202;0;0
479;7.44455;3.22312;5.52038;-13.2141;18.38683;19.22606;992.24158;-19.17604;53.44184;0.43741;0;0
480;7.3098;3.19437;6.94629;-14.31273;13.25988;15.68602;992.22095;-17.57719;46.46066;0.34331;0;0
481;8.32489;2.94045;7.70506;-3.38745;15.3961;0;992.27686;-14.53247;47.21436;0.34248;0;0
482;8.05779;2.94764;8.31231;-1.43432;17.22716;-7.08007;992.27875;-14.28487;44.10925;0.30419;0;0
483;7.96197;4.0244;7.32837;-24.93284;10.94054;0.54932;992.27875;-20.40021;47.37288;0.36525;0;0
484;9.64;4.12382;7.96976;-11.87133;12.16125;-4.6997;992.29047;-18.24728;50.41817;0.39486;0;0
485;9.46513;3.70042;10.35865;-25.17698;21.37754;-9.52148;992.27258;-14.77353;42.41926;0.28618;0;0
486;8.16679;3.12011;10.10712;-7.6599;-6.75964;-7.87353;992.29297;-13.50195;38.939;0.24368;0;0
487;7.92484;3.19916;9.35494;-5.15747;1.4801;-4.88281;992.32568;-14.62433;40.2689;0.2617;0;0
488;7.15829;2.8614;9.07048;3.20434;4.34875;-4.76074;992.31256;-13.90869;38.27998;0.23802;0;0
489;6.56241;2.5446;8.55545;7.17162;-12.49694;-4.21142;992.28192;-13.27853;37.48982;0.22775;0;0
490;6.40731;2.32302;7.19841;7.41577;-23.17808;-6.89697;992.27618;-13.55276;41.67228;0.27384;0;0
491;5.84018;2.30685;6.08871;2.65503;-18.96666;-6.40869;992.26788;-15.29236;43.80645;0.30387;0;0
492;5.40061;2.66617;6.01744;9.42992;-22.56773;-3.96728;992.22137;-18.24969;41.90772;0.29321;0;0
493;5.70783;2.67455;5.39941;20.23314;-27.63364;-4.76074;992.22607;-18.79871;46.59054;0.34945;0;0
494;5.31676;2.23618;4.43523;15.77757;-25.1312;-6.7749;992.20245;-17.89885;50.16524;0.39043;0;0
495;5.46049;2.76139;3.86451;16.99828;-21.16392;-9.15527;992.24304;-22.43011;54.71216;0.46602;0;0
496;6.29771;3.43272;3.68425;25.84837;-24.9481;-8.54492;992.18439;-25.196;59.6718;0.54309;0;0
497;7.8943;4.20526;3.02908;-9.85717;-15.7318;3.17383;992.21436;-26.44305;69.00794;0.67924;0;0
498;7.13793;3.13927;5.51679;27.19114;-1.02234;0.91553;992.19928;-19.187;52.30015;0.42244;0;0
499;8.05779;4.37534;3.63454;5.09643;-0.9613;-6.59179;992.15741;-26.33415;65.72181;0.6315;0;0
500;7.43377;4.13879;3.83097;5.64575;-0.71716;1.15967;992.21118;-26.33089;62.73583;0.58943;0;0
501;7.54696;4.08848;3.80222;-1.5564;-3.28064;0.12207;992.20819;-25.81802;63.26062;0.59498;0;0
502;7.8961;4.55021;3.13568;-3.9978;3.06701;-3.23486;992.23346;-28.17241;68.34108;0.67464;0;0
503;6.95587;4.58614;2.43441;-1.71661;4.776;2.68554;992.22034;-31.89436;70.71105;0.71954;0;0
504;4.09986;2.74642;2.1218;-16.24297;14.11437;14.28221;992.22522;-30.74966;62.63715;0.60499;0;0
505;3.81061;1.52951;2.38709;-7.0877;17.41026;8.72802;992.20715;-18.78587;57.93557;0.49741;0;0
506;4.38971;1.91998;3.99745;-6.29425;17.34923;12.87841;992.23474;-17.92047;47.67771;0.35937;0;0
507;7.29483;2.97638;4.6616;-21.00371;16.67784;21.36229;992.23962;-18.97342;57.42028;0.49078;0;0
508;8.71236;3.45368;6.23962;-14.59502;40.35946;7.32421;992.2522;-17.86333;54.39049;0.44581;0;0
509;8.96867;3.61238;8.34345;-7.94219;18.93614;-2.2583;992.28766;-16.4308;47.06832;0.34669;0;0
510;8.21889;3.42613;8.33806;7.98797;7.2174;1.58691;992.28192;-16.31137;44.5876;0.31649;0;0
511;8.70936;3.68125;8.78781;4.02069;12.58849;0.79346;992.31256;-16.56958;44.7431;0.31922;0;0
512;9.56634;4.04776;8.93573;-4.70733;7.46154;5.49316;992.31506;-17.18227;46.95206;0.34786;0;0
513;9.15971;4.31426;8.70936;-4.03595;14.84679;-11.23046;992.33252;-18.84659;46.44371;0.34788;0;0
514;6.01684;2.25474;7.0996;17.50945;-6.6986;-4.15039;992.31915;-13.61931;40.28096;0.25857;0;0
515;5.48445;2.13976;5.77191;-2.388;-1.9989;-9.58251;992.22162;-15.04256;43.53714;0.29991;0;0
516;5.89228;2.79433;6.75525;-1.96075;-6.75964;0.06104;992.32166;-17.3138;41.09662;0.28054;0;0
517;9.3789;4.19748;9.47472;9.81902;-4.50134;-2.31933;992.31915;-17.47659;44.70881;0.32211;0;0
518;10.34428;4.62806;10.10533;3.65448;1.96838;-4.08935;992.34698;-17.74658;45.66946;0.33446;0;0
519;9.60228;4.95984;9.53939;4.87518;3.49426;-4.5166;992.32062;-20.12476;45.18822;0.33825;0;0
520;8.81656;5.09818;9.89213;11.58904;-25.00913;-5.79834;992.32294;-21.04385;41.70966;0.30326;0;0
521;7.71524;3.94835;8.26979;14.39666;-43.3807;-6.83593;992.2998;-19.24434;43.01309;0.30966;0;0
522;5.91264;2.52004;5.05087;19.27946;-50.3387;-12.14599;992.24579;-17.95584;49.49443;0.38211;0;0
523;3.62556;1.38519;2.29846;23.30778;-32.27231;-17.33397;992.22162;-17.88391;57.62689;0.49044;0;0
524;2.93985;1.66007;1.82955;16.59392;-32.02817;-14.89256;992.23224;-25.61401;58.10491;0.52356;0;0
525;4.46877;2.99555;1.38339;11.40594;-26.53501;-10.37597;992.22162;-32.63339;72.79912;0.75096;0;0
526;7.01696;5.04488;1.66965;2.79999;-19.2108;-3.2959;992.23138;-34.97002;76.61566;0.81031;0;0
527;8.14882;6.17554;3.17341;-1.83868;1.72424;7.32421;992.23859;-35.2292;68.72247;0.70358;0;0
528;8.44526;4.58734;2.87517;12.68767;-21.34703;3.72314;992.23602;-27.21236;71.19895;0.71339;0;0
529;8.57881;4.72987;1.93195;4.50897;-11.88659;3.96728;992.2052;-28.27461;77.30867;0.80651;0;0
530;7.65775;4.57477;2.3841;1.70135;-8.71276;1.2207;992.21521;-29.70041;72.70698;0.74179;0;0
531;8.4764;5.46409;1.51155;3.83758;-5.72204;1.28174;992.23755;-32.39972;79.88906;0.85177;0;0
532;6.68039;4.41187;0.77254;-5.74493;2.09045;5.79834;992.25281;-33.26685;83.40343;0.90395;0;0
533;3.98188;2.72186;0.52521;-2.388;12.83263;16.54051;992.21436;-34.12517;82.48609;0.89175;0;0
534;3.5477;1.49837;0.74859;-3.05938;13.44298;7.56835;992.21606;-22.45288;78.08502;0.80919;0;0
535;5.18082;2.73324;2.57394;7.56072;19.18028;20.32469;992.21094;-25.2894;63.58084;0.59771;0;0
536;9.16929;3.81959;2.19007;-18.19609;36.45322;23.43748;992.26428;-22.05614;76.5667;0.78469;0;0
537;10.12449;3.89145;5.20058;-26.37479;46.09676;6.89697;992.26111;-18.87523;62.81207;0.56766;0;0
538;10.85571;3.87289;6.30131;-6.72149;12.9547;-4.33349;992.30701;-17.14748;59.86655;0.5203;0;0
539;9.94124;4.21185;6.00606;-5.56182;15.02989;8.11767;992.31189;-19.93224;58.86145;0.51387;0;0
540;10.41854;4.14597;6.16357;-14.65605;13.93126;9.2163;992.31421;-18.90613;59.3916;0.5183;0;0
541;10.7018;4.55081;5.42157;-31.62381;16.06749;9.76562;992.35443;-20.77359;63.13308;0.57746;0;0
542;9.76637;3.62675;5.82101;-7.57598;11.30675;-6.83593;992.32611;-17.69211;59.20394;0.51223;0;0
543;7.07445;2.57634;5.38803;0.96893;5.81359;-16.78465;992.30255;-16.15717;52.70643;0.41803;0;0
544;6.71453;2.92548;5.0874;2.18963;0.19836;-12.75634;992.29681;-19.1507;52.84987;0.42952;0;0
545;9.04233;4.1334;6.08871;5.36346;-4.74548;-2.50244;992.3327;-20.76518;56.04542;0.47775;0;0
546;10.4916;4.84905;6.96785;-7.75909;7.58361;-5.67626;992.32422;-21.05717;56.41043;0.4837;0;0
547;9.85021;4.90774;8.12007;2.37274;15.82335;-4.76074;992.34717;-21.02917;50.49934;0.40628;0;0
548;9.07707;4.40469;8.59977;-1.89972;-1.75476;2.74658;992.34418;-19.40549;46.54669;0.35131;0;0
549;8.34285;3.78725;8.39795;8.96453;-16.83043;-3.84521;992.3512;-17.74124;44.81143;0.32431;0;0
550;7.82543;3.47464;5.90785;10.91765;-41.00033;-3.41797;992.27661;-19.51283;52.94883;0.43208;0;0
551;6.01565;2.47393;3.46865;1.76239;-31.78403;-19.77537;992.26154;-19.60931;60.03202;0.52945;0;0
552;4.52506;1.81697;3.41715;16.83806;-25.07017;-21.78953;992.21967;-17.76715;52.9413;0.42611;0;0
553;4.16274;2.24217;2.3829;20.62224;-20.37047;-16.72362;992.20691;-25.05406;60.21164;0.54995;0;0
554;5.41498;3.05304;2.24157;21.84294;-29.58677;-6.10351;992.2063;-27.51694;67.51255;0.66079;0;0
555;7.96976;4.53165;1.19415;-8.06426;-10.84899;-2.74658;992.23138;-29.35028;81.4785;0.87084;0;0
556;8.1069;4.51847;3.05663;12.93181;-6.82067;3.78418;992.20563;-27.54308;69.34151;0.68719;0;0
557;7.96257;4.67837;2.50926;15.49529;-7.18688;-9.46044;992.25623;-29.26534;72.50867;0.7378;0;0
558;8.09612;4.68136;2.08407;5.30242;-9.93346;4.6997;992.19287;-29.24744;75.56458;0.78249;0;0
559;7.77812;4.5544;2.20983;-5.07354;1.78528;3.90625;992.21735;-29.39037;74.13971;0.76188;0;0
560;8.14044;4.67298;2.1727;-0.86212;3.25012;2.01416;992.21478;-29.01407;75.05599;0.77449;0;0
561;8.07216;5.1401;2.08706;-2.51007;8.92638;7.44628;992.242;-31.65366;75.50361;0.78692;0;0
562;6.56421;4.41427;0.53659;-3.6087;12.03917;5.67626;992.21375;-33.83156;85.32678;0.93232;0;0
563;2.80391;1.19355;1.1145;-2.93731;23.45274;9.82665;992.24176;-21.58228;68.32318;0.65653;0;0
564;4.01123;1.48759;2.62125;-20.6375;21.1334;17.2119;992.2052;-17.24687;56.83624;0.47756;0;0
565;7.45174;3.62496;2.7554;-25.27616;28.76279;25.26853;992.2052;-24.52557;69.70731;0.68448;0;0
566;9.36153;3.79504;4.32504;-14.77812;29.06797;15.80809;992.21777;-20.2041;65.20302;0.6064;0;0
567;9.71067;4.15735;6.28574;-5.13458;23.63584;1.40381;992.27362;-19.76837;57.08495;0.48863;0;0
568;9.05311;3.99087;6.251;5.30242;10.81847;-5.24902;992.27069;-19.93851;55.37566;0.46586;0;0
569;9.59629;4.13579;6.29172;-6.0501;10.08605;8.54492;992.27576;-19.82014;56.74949;0.48418;0;0
570;10.02927;3.98248;7.2589;3.1662;21.56065;7.81249;992.31616;-17.83157;54.10406;0.44185;0;0
571;10.98926;4.36816;7.24872;-15.75469;27.17588;14.22118;992.30316;-18.35635;56.59042;0.4774;0;0
572;9.03095;3.21892;7.72662;1.21307;9.10949;-2.2583;992.33337;-15.1541;49.45069;0.3725;0;0
573;6.57439;1.5894;7.12655;24.16227;-8.22448;-6.40869;992.31506;-9.30942;42.69218;0.27467;0;0
574;6.39832;1.91638;5.21436;8.9035;-4.50134;-11.4746;992.24243;-13.07117;50.82145;0.38463;0;0
575;7.30801;2.87937;5.46948;-5.37872;-2.42615;-3.2959;992.31958;-17.50735;53.18799;0.42856;0;0
576;9.22918;3.78126;6.98701;-7.75909;7.09533;-1.95312;992.29578;-18.08994;52.87222;0.42624;0;0
577;10.47603;4.72388;9.16031;5.18035;8.255;-15.38085;992.31873;-18.74998;48.83333;0.37668;0;0
578;9.21301;4.48314;7.76734;-1.47247;8.80431;-13.24462;992.3183;-20.40689;49.86631;0.39588;0;0
579;8.2099;4.17891;8.3177;-6.72149;-2.73132;1.15967;992.30487;-19.67545;44.62631;0.32985;0;0
580;7.80147;3.38601;7.85118;6.52313;-25.55845;-3.35693;992.30975;-17.0101;44.81805;0.32168;0;0
581;7.48827;3.16024;5.99528;2.00653;-31.9061;-3.54004;992.27344;-18.23425;51.31841;0.40639;0;0
582;5.26526;2.76678;4.60052;10.21575;-31.17368;-9.94109;992.24219;-21.58908;48.8547;0.38819;0;0
583;4.54362;2.07209;2.85481;2.89154;-18.96666;-16.47185;992.22137;-21.11397;57.85838;0.5037;0;0
584;4.15915;2.85721;2.83146;4.96673;-25.55845;-6.8283;992.24347;-29.59084;55.75385;0.51065;0;0
585;5.78628;3.42494;2.40865;17.11272;-36.66684;-6.52313;992.24878;-28.65448;67.39951;0.66276;0;0
586;7.3661;4.2394;3.37882;14.61028;-16.70836;-4.57;992.25323;-27.61497;65.35911;0.63057;0;0
587;7.74997;4.91552;2.44399;2.15912;1.90735;2.51007;992.26831;-31.16966;72.49711;0.74266;0;0
588;7.97575;4.69274;2.68234;14.85442;-7.49206;-3.10516;992.21649;-29.14766;71.4116;0.7216;0;0
589;7.97634;4.71011;2.52663;5.33294;-4.07409;-0.05341;992.23669;-29.37698;72.4236;0.73685;0;0
590;7.56492;4.47835;1.84392;-0.46539;1.11389;2.32696;992.25665;-29.90535;76.3015;0.79472;0;0