timestamp,ax,ay,az,gx,gy,gz,pitch,roll,BAR,totacc,status,mov,prob
1672219680258,9.936936378479004,1.161584496498108,2.0716919898986816,-1.0499995946884155,0.909999668598175,0.5599997639656067,-6.528250180153162,78.22343933759764,0.001953125,10.216843486784681,0,,0
1672219680365,9.877060890197754,1.396296501159668,2.0716919898986816,0.2099999338388443,1.0499995946884155,-0.2099999338388443,-7.877257820360006,78.15406023786426,0.0068359375,10.188124628646586,0,,0
1672219680470,9.982441902160645,1.19271981716156,1.9567310810089111,-0.48999980092048645,0.6299998164176941,0.06999997049570084,-6.687422361938848,78.90965127095748,0.02294921875,10.242095655462744,0,,0
1672219680574,9.90101146697998,1.2190649509429932,2.33514404296875,0.27999988198280334,-0.34999987483024597,0.5599997639656067,-6.833591034223295,76.72935714836242,0.03662109375,10.24544021139644,0,,0
1672219680683,9.908196449279785,1.4034814834594727,2.222578287124634,0.2099999338388443,-0.06999997049570084,0.2099999338388443,-7.869215610699845,77.35686178867243,0.037841796875,10.250949780109744,0,,0
1672219680787,9.884245872497559,1.3196557760238647,2.0501368045806885,-0.7699997425079346,0.5599997639656067,0.4199998676776886,-7.447960667209233,78.28217083055337,0.05224609375,10.180514169366619,0,,0
1672219680892,9.956096649169922,1.2478052377700806,1.9998414516448975,0.27999988198280334,0.27999988198280334,0.4199998676776886,-7.005185057573341,78.64236503006671,0.067626953125,10.231336385376848,0,,0
1672219680997,9.86987590789795,1.2238550186157227,2.2273683547973633,0.13999994099140167,0.6299998164176941,0.13999994099140167,-6.89683187781477,77.2828986094048,0.08349609375,10.191832089072502,0,,0
1672219681104,9.922566413879395,1.3340259790420532,2.272873640060425,0.27999988198280334,0.909999668598175,0.06999997049570084,-7.4660410787506075,77.09834012250867,0.09033203125,10.26659165128759,0,,0
1672219681211,9.922566413879395,1.221459984779358,2.222578287124634,-0.34999987483024597,-0.06999997049570084,-0.34999987483024597,-6.849700821022096,77.37458433056204,0.09814453125,10.241540068498606,0,,0
1672219681317,9.853110313415527,1.350791096687317,2.304008960723877,3.149998903274536,0.7699997425079346,0.34999987483024597,-7.603565420151659,76.83868344048852,0.096923828125,10.208666745776409,0,,0
1672219681425,9.910591125488281,1.281335473060608,2.2273683547973633,-0.06999997049570084,-1.609999418258667,0.4199998676776886,-7.189486465313954,77.33345468845145,0.08935546875,10.238300974238022,0,,0
1672219681533,9.898615837097168,1.266965389251709,2.184257984161377,2.9399991035461426,-0.8399997353553772,0.9799996018409729,-7.124306177064973,77.55635475950815,0.10986328125,10.215614505714539,0,,0
1672219681641,9.903406143188477,1.2597802877426147,2.016606569290161,2.8699989318847656,-2.029999256134033,1.1899995803833008,-7.10520192232515,78.49035708004915,0.0908203125,10.184851577987397,0,,0
1672219681749,9.893826484680176,1.3939014673233032,2.2704787254333496,1.1199995279312134,-1.1899995803833008,0.7699997425079346,-7.818764043662584,77.07529679722346,0.078369140625,10.246259681084137,0,,0
1672219681857,9.898615837097168,1.3316309452056885,2.162702798843384,1.609999418258667,1.2599996328353882,-0.27999988198280334,-7.487281129230587,77.67538308518056,0.065185546875,10.21925241203021,0,,0
1672219681967,9.920171737670898,1.341210961341858,2.3087990283966064,1.9599992036819458,0.34999987483024597,-0.06999997049570084,-7.5016069941413,76.89834132934658,0.063720703125,10.27322768662474,0,,0
1672219682076,9.886641502380371,1.2693604230880737,2.2201831340789795,1.329999566078186,-0.5599997639656067,0.0,-7.140341206598655,77.3433995189368,0.043212890625,10.212059989499723,0,,0
1672219682184,9.867481231689453,1.350791096687317,2.1483325958251953,-0.13999994099140167,0.34999987483024597,-0.13999994099140167,-7.618644968381824,77.71733004680561,0.062255859375,10.188579655031331,0,,0
1672219682292,9.730964660644531,1.1208691596984863,2.3614892959594727,2.029999256134033,1.1199995279312134,2.2399990558624268,-6.386921922777341,76.35928353065329,0.0703125,10.075944253260193,0,,0
1672219682398,9.908196449279785,1.171164631843567,2.1124072074890137,-0.5599997639656067,-3.6399986743927,2.3099992275238037,-6.594321105574542,77.96484418625143,0.06201171875,10.198345340429169,0,,0
1672219682505,10.20038890838623,1.3244458436965942,2.3183789253234863,4.129998683929443,-2.5199992656707764,2.4499990940093994,-7.216026792749631,77.19515334218495,0.079345703125,10.544049104428435,0,,0
1672219682613,9.527388572692871,1.3915064334869385,1.7124390602111816,1.7499994039535522,-3.0099987983703613,3.709998607635498,-8.180216367199082,79.81053658463563,0.089599609375,9.779563932223727,0,,0
1672219682720,9.02682876586914,1.0753638744354248,1.815424919128418,-2.3799991607666016,-5.45999813079834,2.169999122619629,-6.6614664916516375,78.62868818790956,0.095947265625,9.270157100489493,0,,0
1672219682827,8.693921089172363,1.0106983184814453,1.7483643293380737,-6.509997367858887,3.4999988079071045,-4.899998188018799,-6.502039738492374,78.62937274674833,0.072021484375,8.925388104941934,0,,0
1672219682935,8.593330383300781,1.0753638744354248,1.7387843132019043,-4.269998550415039,5.17999792098999,-5.109997749328613,-6.992613895460457,78.56114726545268,0.0673828125,8.833182066890625,0,,0
1672219683043,9.596843719482422,1.31247079372406,2.1315674781799316,-0.5599997639656067,-3.849998712539673,0.48999980092048645,-7.604427216134298,77.47724857141408,0.06640625,9.91794176604109,0,,0
1672219683151,10.066267967224121,1.2957056760787964,2.2082080841064453,-2.72999906539917,3.289998769760132,-1.609999418258667,-7.16608168780413,77.62717417805158,0.061767578125,10.386760174842697,0,,0
1672219683259,9.479487419128418,1.0801538228988647,2.153122663497925,-4.059998512268066,12.949995040893555,-4.4799981117248535,-6.340481091640541,77.20324194375767,0.061279296875,9.780764347156381,0,,0
1672219683364,9.819580078125,1.49209725856781,2.2082080841064453,0.0,2.4499990940093994,-1.6799994707107544,-8.4326216511365,77.32626694985846,0.025634765625,10.174806636120808,0,,0
1672219683472,9.99920654296875,1.3100757598876953,2.3974146842956543,-2.099999189376831,0.5599997639656067,-1.3999994993209839,-7.260772648078615,76.5172429040437,0.048583984375,10.365714020465296,1,,0
1672219683580,9.821975708007812,1.5471826791763306,2.502795457839966,-1.1199995279312134,4.269998550415039,-1.3999994993209839,-8.678908417417073,75.70435348104495,0.064697265625,10.25324173884646,1,,0
1672219683688,10.159673690795898,1.61184823513031,2.464475154876709,-0.7699997425079346,-0.7699997425079346,-2.5199992656707764,-8.764861218640524,76.36488815775289,0.064697265625,10.577838249167343,1,,0
1672219683796,10.207573890686035,1.5831079483032227,2.62494158744812,-1.9599992036819458,3.9199984073638916,-1.7499994039535522,-8.542226452777923,75.57850633531382,0.06787109375,10.657913203217163,1,,0
1672219683904,10.197993278503418,1.7435742616653442,2.533930778503418,-1.2599996328353882,-1.1899995803833008,-1.1199995279312134,-9.42107796716519,76.04610493343301,0.0830078125,10.651756817754979,1,,0
1672219684011,10.317744255065918,1.6166383028030396,2.7087671756744385,0.2099999338388443,-2.4499990940093994,-0.6999997496604919,-8.617573507397486,75.28982953890618,0.098388671875,10.78919763129061,1,,0
1672219684118,9.75970458984375,1.6669336557388306,2.572251081466675,-0.909999668598175,0.9799996018409729,-1.1199995279312134,-9.378179678853774,75.23498406078103,0.089111328125,10.22971051006618,1,,0
1672219684226,9.36213207244873,1.650168538093567,2.313588857650757,0.909999668598175,-1.4699995517730713,2.659999132156372,-9.709983569723034,76.11905850003802,0.09912109375,9.783928993422466,1,,0
1672219684335,9.970466613769531,1.4968873262405396,2.402204751968384,1.5399994850158691,0.27999988198280334,0.27999988198280334,-8.304006792924914,76.45378455836249,0.107421875,10.364432634453847,1,,0
1672219684443,11.584710121154785,1.73159921169281,2.8668384552001953,-2.4499990940093994,2.3099992275238037,3.5699985027313232,-8.255773102076734,76.10040767445908,0.0947265625,12.059133764468156,1,,0
1672219684552,11.929593086242676,2.014211416244507,3.3266823291778564,-4.969998359680176,9.449995994567871,-0.4199998676776886,-9.237502123234837,74.41835796820844,0.10107421875,12.547472022360639,1,,0
1672219684660,9.992021560668945,1.6381934881210327,2.6464967727661133,-0.27999988198280334,5.879998207092285,-2.3099992275238037,-9.005642342098142,75.16521508276787,0.095458984375,10.465568209211417,1,,0
1672219684768,8.76337718963623,1.3579760789871216,2.615361452102661,-0.6999997496604919,-6.999997615814209,-2.3799991607666016,-8.44605668148133,73.38267726922449,0.09326171875,9.2455932380828,1,,0
1672219684875,9.199270248413086,1.5878980159759521,2.3399341106414795,1.1199995279312134,0.06999997049570084,0.8399997353553772,-9.496761567945287,75.7288387503067,0.08642578125,9.624099171071652,1,,0
1672219684982,9.790840148925781,1.6789087057113647,2.692002058029175,0.6299998164176941,-1.6799994707107544,2.099999189376831,-9.388436989203772,74.62635479346606,0.068603515625,10.292043545592087,0,,0
1672219685090,10.174043655395508,1.6453784704208374,2.881208658218384,-0.6299998164176941,0.2099999338388443,0.8399997353553772,-8.844521043458952,74.18829782711147,0.065185546875,10.701392336748082,0,,0
1672219685197,9.948911666870117,1.5112574100494385,2.735112428665161,-2.169999122619629,2.5199992656707764,-0.06999997049570084,-8.332729817013632,74.62823716340938,0.053466796875,10.42811499323115,0,,0
1672219685305,9.587264060974121,1.5040723085403442,2.622546434402466,-0.6299998164176941,-0.13999994099140167,-0.27999988198280334,-8.604882491462567,74.70129126720923,0.071044921875,10.052642214102766,0,,0
1672219685413,9.73575496673584,1.482517123222351,2.7710378170013428,-0.2099999338388443,-0.4199998676776886,0.6299998164176941,-8.332222586223375,74.11232978754647,0.072265625,10.230417018686023,0,,0
1672219685520,10.391990661621094,1.6094532012939453,2.8285181522369385,-0.4199998676776886,0.0,2.169999122619629,-8.499263112585641,74.77393687337339,0.077880859375,10.889642990287111,0,,0
1672219685627,11.199111938476562,1.7507593631744385,2.9362940788269043,0.6299998164176941,-3.0799989700317383,3.5699985027313232,-8.599055307366756,75.3083193198913,0.049072265625,11.709273652777322,0,,0
1672219685733,11.12247085571289,1.6645386219024658,3.1087355613708496,0.0,0.0,0.8399997353553772,-8.201645319993727,74.38429856881397,0.070068359375,11.668088256030606,0,,0
1672219685841,10.988349914550781,1.5735279321670532,3.024909734725952,1.1199995279312134,3.149998903274536,0.8399997353553772,-7.860782253460752,74.60865680116207,0.060546875,11.505211988536235,0,,0
1672219685949,10.787168502807617,1.55197274684906,3.082390308380127,0.48999980092048645,1.7499994039535522,0.8399997353553772,-7.876043724857183,74.05292396052086,0.083740234375,11.325756209989807,0,,0
1672219686057,10.272239685058594,1.5232324600219727,2.8668384552001953,0.06999997049570084,1.1199995279312134,0.06999997049570084,-8.1284782843928,74.40632540956153,0.0830078125,10.773017590386265,0,,0
1672219686164,9.84113597869873,1.4897022247314453,2.972219467163086,-2.029999256134033,1.609999418258667,-3.359998941421509,-8.245346171877094,73.19463604851606,0.08935546875,10.387553062708832,0,,0
1672219686271,9.8100004196167,1.401086449623108,2.893183708190918,1.5399994850158691,2.589998960494995,0.27999988198280334,-7.800333496389507,73.56805887149734,0.08740234375,10.323258373282084,0,,0
1672219686379,9.340576171875,1.4154566526412964,2.632126569747925,2.169999122619629,-7.419997215270996,2.099999189376831,-8.298524418490462,74.26243535670203,0.08349609375,9.807036812273038,0,,0
1672219686487,9.02682876586914,1.3747413158416748,2.5411157608032227,3.149998903274536,-8.539997100830078,1.5399994850158691,-8.339992185743913,74.27771592526433,0.086181640625,9.47791224709362,0,,0
1672219686594,9.010064125061035,1.3292359113693237,2.2417383193969727,6.369997501373291,-9.239996910095215,3.359998941421509,-8.147292131740214,76.02827960368086,0.0810546875,9.379419722906022,0,,0
1672219686703,8.782537460327148,1.4801220893859863,1.7842895984649658,5.809998035430908,-18.059993743896484,2.4499990940093994,-9.378094231028626,78.51589936128703,0.088134765625,9.08335923613771,0,,0
1672219686811,8.471184730529785,1.2406201362609863,1.6477735042572021,5.669997692108154,-14.979994773864746,0.8399997353553772,-8.180646610502857,78.99255747025867,0.062255859375,8.718673441676163,0,,0
1672219686918,8.564590454101562,1.1783496141433716,1.5232324600219727,4.759998321533203,-7.629997253417969,3.4999988079071045,-7.714228808674452,79.9152608963605,0.06982421875,8.778436910230889,0,,0
1672219687025,9.072334289550781,1.2142750024795532,1.2334351539611816,3.779998779296875,-9.449995994567871,4.059998512268066,-7.554687052236173,82.2577841826829,0.0703125,9.235966409750137,0,,0
1672219687133,10.001602172851562,1.3076807260513306,1.520837426185608,0.34999987483024597,2.589998960494995,-1.6799994707107544,-7.365285606962513,81.35387214445937,0.060302734375,10.200736315686338,0,,0
1672219687241,10.083032608032227,1.396296501159668,1.410666584968567,-1.8899993896484375,0.6299998164176941,2.099999189376831,-7.809064135027083,82.03572874724586,0.06298828125,10.276534956284573,0,,0
1672219687348,10.0495023727417,1.2597802877426147,1.7124390602111816,-1.4699995517730713,6.789997577667236,2.589998960494995,-7.044680757523176,80.32966030878451,0.055419921875,10.27190302952977,0,,0
1672219687455,10.027947425842285,1.336421012878418,1.6238232851028442,0.2099999338388443,16.79999351501465,1.4699995517730713,-7.494566679088054,80.80194758708323,0.062744140625,10.246099392469413,0,,0
1672219687562,10.212363243103027,1.2789404392242432,1.6836987733840942,-0.34999987483024597,-5.5999979972839355,2.169999122619629,-7.044127222336568,80.63794022301511,0.0322265625,10.428944971360238,0,,0
1672219687669,9.829160690307617,1.2693604230880737,1.8489551544189453,0.27999988198280334,-6.439997673034668,3.219998836517334,-7.233100267289899,79.34663163906781,0.032470703125,10.081781138402244,0,,0
1672219687776,9.910591125488281,1.1520044803619385,1.7986598014831543,2.3099992275238037,-0.5599997639656067,2.9399991035461426,-6.524648100451206,79.71343129358121,0.018310546875,10.138151106629476,0,,0
1672219687884,10.382410049438477,1.1208691596984863,1.7124390602111816,1.0499995946884155,4.759998321533203,-0.9799996018409729,-6.080180545187941,80.63415320618645,0.02685546875,10.582213078689222,0,,0
1672219687992,9.560918807983398,1.197509765625,1.8441650867462158,3.149998903274536,9.799996376037598,1.1199995279312134,-7.011233641491013,79.08253684541577,0.025146484375,9.810511860183015,0,,0
1672219688097,8.746611595153809,1.1807446479797363,1.61184823513031,-2.099999189376831,-4.829998016357422,2.029999256134033,-7.562313812451731,79.55853137857758,0.0068359375,8.971924378487847,0,,0
1672219688203,8.938213348388672,0.8789722323417664,1.5974781513214111,-3.9199984073638916,-8.259997367858887,-0.7699997425079346,-5.5292750312534205,79.8668266070021,-9.765625E-4,9.122290638347947,0,,0
1672219688308,8.746611595153809,1.0705738067626953,1.7986598014831543,-4.5499982833862305,6.789997577667236,-1.81999933719635,-6.836558993289381,78.37964644154344,0.0244140625,8.993582142487877,0,,0
1672219688414,9.44595718383789,1.0202783346176147,1.590293049812317,-3.359998941421509,13.789995193481445,-1.81999933719635,-6.079834407865791,80.44347215135583,0.027587890625,9.63307360001314,0,,0
1672219688519,9.932146072387695,1.3100757598876953,1.961521029472351,-1.9599992036819458,0.7699997425079346,-1.1899995803833008,-7.373281440951047,78.82829590607044,0.023681640625,10.208397957023125,0,,0
1672219688626,9.96088695526123,1.3843213319778442,1.9375709295272827,-1.5399994850158691,11.829995155334473,-2.099999189376831,-7.7682699113985185,78.99240328123715,0.00927734375,10.241571929767982,1,,0
1672219688732,10.10458755493164,1.2861255407333374,2.282453775405884,-0.7699997425079346,9.169997215270996,-2.029999256134033,-7.07725143365646,77.2714755358233,0.011474609375,10.438697418675885,1,,0
1672219688839,10.03513240814209,1.221459984779358,2.512375593185425,-2.169999122619629,4.409998416900635,-1.5399994850158691,-6.733975673861057,75.9444534016908,0.02880859375,10.416711480337481,1,,0
1672219688944,9.877060890197754,1.2861255407333374,2.7686426639556885,-1.6799994707107544,10.639996528625488,-1.4699995517730713,-7.14649205832357,74.34126450378521,0.02294921875,10.33807684900225,1,,0
1672219689049,9.695039749145508,1.4394067525863647,2.7494826316833496,-3.779998779296875,3.289998769760132,-3.359998941421509,-8.128887750461306,74.1668312616515,0.033447265625,10.179653347675009,1,,0
1672219689155,9.663904190063477,1.4897022247314453,2.7590625286102295,-0.48999980092048645,-2.099999189376831,-2.099999189376831,-8.431466366222951,74.06585784571111,0.03955078125,10.159856443369527,1,,0
1672219689263,9.788445472717285,1.5783178806304932,2.845283269882202,0.27999988198280334,-4.969998359680176,-1.2599996328353882,-8.801463359714555,73.79202798937388,0.03662109375,10.31505642207298,1,,0
1672219689368,9.716594696044922,1.410666584968567,2.6967921257019043,0.06999997049570084,2.3099992275238037,-2.029999256134033,-7.96360044947845,74.4882724469445,0.01806640625,10.182086253337426,1,,0
1672219689475,9.96088695526123,1.43222177028656,2.905158758163452,-2.589998960494995,1.2599996328353882,-3.219998836517334,-7.859077388630243,73.74032515537988,0.01513671875,10.474276850690453,1,,0
1672219689582,10.09500789642334,1.520837426185608,2.794987916946411,-0.06999997049570084,3.0099987983703613,-0.5599997639656067,-8.261066367521462,74.52427563370064,0.022705078125,10.584615645436205,1,,0
1672219689687,9.61600399017334,1.482517123222351,2.7782227993011475,-0.48999980092048645,-1.609999418258667,0.9799996018409729,-8.425053928161974,73.88511851744869,0.028564453125,10.118493548065036,1,,0
1672219689793,9.963281631469727,1.6693286895751953,2.92431902885437,1.3999994993209839,-2.169999122619629,3.709998607635498,-9.13308061516374,73.6425286092201,0.038330078125,10.516904531483618,1,,0
1672219689899,10.34408950805664,1.5639477968215942,3.0991554260253906,0.0,-3.779998779296875,5.109997749328613,-8.240945072666857,73.32144761219152,0.041259765625,10.911044167105787,1,,0
1672219690004,11.977493286132812,1.85135018825531,3.503913640975952,1.2599996328353882,1.7499994039535522,5.17999792098999,-8.438363466463269,73.6936126608641,0.031005859375,12.616071248305746,1,,0
1672219690107,12.315191268920898,1.79147469997406,3.542233943939209,0.6299998164176941,-0.7699997425079346,1.1899995803833008,-7.958405816871302,73.95311070889517,0.053955078125,12.93911661993769,1,,0
1672219690213,11.3667631149292,1.516047477722168,3.312312126159668,-2.5199992656707764,-1.8899993896484375,-2.4499990940093994,-7.29698794907833,73.75370384261784,0.055908203125,11.936210256472826,1,,0
1672219690320,10.435100555419922,1.3555811643600464,2.965034246444702,-0.6999997496604919,12.949995040893555,-0.48999980092048645,-7.122728963206781,74.13800694590829,0.042236328125,10.932536392689613,1,,0
1672219690437,10.7680082321167,1.4274317026138306,2.9674293994903564,-2.169999122619629,-1.0499995946884155,-1.0499995946884155,-7.282828572594832,74.59294885568141,0.06884765625,11.260248655936499,0,,0
1672219690544,10.162068367004395,1.5447876453399658,2.9985644817352295,0.5599997639656067,-2.3099992275238037,-0.7699997425079346,-8.295286851348246,73.5600284517543,0.069580078125,10.707258814280639,0,,0
1672219690648,10.03513240814209,1.3986914157867432,3.1350808143615723,1.3999994993209839,-2.3799991607666016,-1.5399994850158691,-7.578033875382323,72.65064689054101,0.060791015625,10.606080889665003,0,,0
1672219690752,9.783655166625977,1.5615527629852295,2.5794360637664795,2.72999906539917,-7.489997386932373,1.3999994993209839,-8.773495142344814,75.23020584270323,0.061279296875,10.23776566727785,0,,0
1672219690858,9.218430519104004,1.336421012878418,2.6201515197753906,3.149998903274536,-7.629997253417969,2.169999122619629,-7.938662059271567,74.13327709324264,0.078857421875,9.676294556584788,0,,0
1672219690965,8.78732681274414,1.302890658378601,2.423759937286377,4.339998245239258,-3.9899983406066895,1.1899995803833008,-8.134298379936093,74.57983963308406,0.07373046875,9.208107776044804,0,,0
1672219691069,9.07712459564209,1.25738525390625,2.315984010696411,0.27999988198280334,-8.189996719360352,0.7699997425079346,-7.644688766732206,75.68664160335375,0.06005859375,9.451930519177175,0,,0
1672219691175,8.485554695129395,1.5352076292037964,2.14593768119812,0.06999997049570084,-14.839994430541992,1.329999566078186,-9.948384474413603,75.80785493983379,0.048828125,8.886312479334947,0,,0
1672219691281,8.037686347961426,1.5399975776672363,1.7962647676467896,5.109997749328613,-2.3799991607666016,-0.4199998676776886,-10.591129768980498,77.40251884588443,0.043212890625,8.378696884534946,0,,0
1672219691386,6.715634822845459,0.32572266459465027,3.0177247524261475,9.239996910095215,16.169994354248047,13.019994735717773,-2.533157387049562,65.80284793005426,0.03125,7.369702097741174,0,,0
1672219691493,11.345208168029785,0.13651612401008606,2.972219467163086,-86.86996459960938,-14.839994430541992,38.21998596191406,-0.66689903073689,75.31956425931284,0.0302734375,11.728873500427383,0,,0
1672219691601,10.638677597045898,1.2957056760787964,2.064507007598877,25.479990005493164,13.649994850158691,-12.739995002746582,-6.818008258518994,79.01786578394226,0.054443359375,10.914325604330026,0,,0
1672219691707,10.087822914123535,0.9987232089042664,1.3915064334869385,46.33998107910156,3.9899983406066895,-5.039998531341553,-5.601325014340764,82.14622650149113,0.18212890625,10.232199633957277,0,,0
1672219691814,10.506951332092285,0.5939648747444153,2.874023675918579,-10.779995918273926,25.759990692138672,0.6999997496604919,-3.1211066207582108,74.7017907477315,0.287841796875,10.909116951299337,0,,0
1672219691922,10.756032943725586,2.02618670463562,2.682421922683716,11.479995727539062,41.509986877441406,-6.229997634887695,-10.358105105302924,75.99678189684953,0.335693359375,11.269119957647378,0,,0
1672219692031,8.6220703125,0.3041674792766571,3.650009870529175,-18.339994430541992,-5.739997863769531,11.899994850158691,-1.860695705927185,67.05543938088185,0.257080078125,9.367773822211111,0,,0
1672219692138,10.11895751953125,-0.09580078721046448,4.344565391540527,-2.169999122619629,-20.15999412536621,0.909999668598175,0.49843285649070174,66.76377651717708,0.160400390625,11.012616742367813,0,,0
1672219692254,9.63995361328125,1.1879297494888306,3.453618288040161,-4.339998245239258,-16.379993438720703,-7.90999698638916,-6.617277666211378,70.28938441692843,0.099609375,10.308606212064765,0,,0
1672219692364,10.245894432067871,1.0825488567352295,3.2787818908691406,3.9899983406066895,-15.049993515014648,-3.0099987983703613,-5.746321670281409,72.25484314667504,0.035888671875,10.812061571605554,0,,0
1672219692471,9.730964660644531,1.2645703554153442,3.3051271438598633,4.129998683929443,6.789997577667236,3.849998712539673,-7.014941719795094,71.23991794690149,-0.019287109375,10.354452030290512,0,,0
1672219692577,9.489068031311035,1.0250684022903442,2.5602760314941406,-0.34999987483024597,-9.379996299743652,-3.5699985027313232,-5.954226590349753,74.90039981684727,-0.0234375,9.881709907180364,0,,0
1672219692686,9.891430854797363,0.7544311881065369,3.120710611343384,-1.7499994039535522,2.169999122619629,0.6299998164176941,-4.160196839532498,72.48970331761232,-0.01171875,10.399442556818915,0,,0
1672219692790,9.649534225463867,1.197509765625,2.5506958961486816,0.5599997639656067,2.4499990940093994,-3.4299986362457275,-6.841610935568788,75.19345667801603,-0.031982421875,10.052541467797859,0,,0
1672219692901,9.642349243164062,1.2382251024246216,2.5890161991119385,0.0,2.72999906539917,-0.6999997496604919,-7.069859510545847,74.97030746027447,-0.052490234375,10.06037301548432,0,,0
1672219693006,9.105864524841309,0.9053174257278442,2.842888355255127,-1.9599992036819458,-6.159997940063477,0.13999994099140167,-5.421343519163779,72.66142155348822,-0.073974609375,9.582190907435267,0,,0
1672219693113,8.198152542114258,0.5652246475219727,2.162702798843384,-6.299997806549072,-13.859994888305664,4.409998416900635,-3.813962807810311,75.22183847726262,-0.0703125,8.497438873099695,0,,0
1672219693219,8.087981224060059,0.6634204387664795,2.136357545852661,-7.839996814727783,-5.109997749328613,2.659999132156372,-4.53438265381906,75.20383597318715,-0.077392578125,8.391638131082797,0,,0
1672219693325,8.040081024169922,0.7831714153289795,1.9279907941818237,-3.0799989700317383,22.74999237060547,0.34999987483024597,-5.411085513957986,76.51524141216903,-0.093017578125,8.305023109146386,0,,0
1672219693431,9.034013748168945,0.7807763814926147,2.196233034133911,0.2099999338388443,1.9599992036819458,-2.099999189376831,-4.800450281290335,76.33605696918859,-0.097412109375,9.329869007666895,0,,0
1672219693538,10.027947425842285,0.7640112638473511,3.0081446170806885,-1.6799994707107544,7.2799973487854,-2.3099992275238037,-4.173791895255758,73.30201185977226,-0.093994140625,10.497255680605958,0,,0
1672219693645,10.324929237365723,1.221459984779358,2.92431902885437,-2.2399990558624268,9.029996871948242,-0.34999987483024597,-6.493723980751299,74.18634173981638,-0.091552734375,10.800359717784703,1,,0
1672219693752,10.2890043258667,0.7975415587425232,3.4991235733032227,-3.9899983406066895,0.2099999338388443,-2.029999256134033,-4.19719781860197,71.21766368802736,-0.07177734375,10.896951332224596,1,,0
1672219693862,11.026670455932617,1.0993139743804932,3.273991823196411,-2.3099992275238037,9.869996070861816,-0.4199998676776886,-5.459297183311399,73.46301801509196,-0.09423828125,11.554868022455402,1,,0
1672219693970,9.6902494430542,0.8143066763877869,3.520678758621216,-2.659999132156372,8.679996490478516,-1.81999933719635,-4.51597259321039,70.03281402147323,-0.087890625,10.342108515831216,1,,0
1672219694077,10.226734161376953,1.0322535037994385,3.3194971084594727,0.27999988198280334,-1.4699995517730713,0.13999994099140167,-5.483923484444275,72.01708065072555,-0.080810546875,10.801421200779618,1,,0
1672219694183,9.956096649169922,0.7951465249061584,4.1266188621521,-3.149998903274536,-7.419997215270996,-0.909999668598175,-4.21957513868261,67.48689297061712,-0.072265625,10.806715584170446,1,,0
1672219694291,9.8100004196167,0.8334668278694153,3.712280511856079,-0.6299998164176941,5.17999792098999,1.1199995279312134,-4.543276922051949,69.2724565602658,-0.04736328125,10.521967581433852,1,,0
1672219694399,9.860296249389648,1.0849438905715942,3.5446290969848633,-2.2399990558624268,-0.6299998164176941,-1.5399994850158691,-5.911584737893755,70.22724736523232,-0.042236328125,10.534084716130202,1,,0
1672219694511,9.85550594329834,0.9580078721046448,3.460803270339966,-0.4199998676776886,4.969998359680176,0.4199998676776886,-5.240223457177629,70.65105623842828,-0.03857421875,10.489324847548538,1,,0
1672219694615,9.80521011352539,0.9843530654907227,3.4368531703948975,2.3099992275238037,-1.5399994850158691,1.3999994993209839,-5.412022926614303,70.68377528753174,-0.0205078125,10.436620911136663,1,,0
1672219694724,10.384804725646973,1.0777587890625,3.772156000137329,-0.13999994099140167,6.299997806549072,0.13999994099140167,-5.5713696827870445,70.03705358228532,-0.0048828125,11.101121298616334,1,,0
1672219694833,10.686577796936035,1.0753638744354248,4.418811321258545,-2.099999189376831,6.579997539520264,-1.0499995946884155,-5.312737589574086,67.53531130753258,0.00634765625,11.614010761373079,1,,0
1672219694938,10.205178260803223,1.0538086891174316,4.160149097442627,1.1199995279312134,-0.2099999338388443,-0.4199998676776886,-5.462138600268799,67.82169499494422,0.0205078125,11.070818244420003,1,,0
1672219695047,10.461445808410645,1.003513216972351,4.258345127105713,2.589998960494995,-2.9399991035461426,1.9599992036819458,-5.077191049338366,67.85115534143354,0.02392578125,11.339417551201464,1,,0
1672219695152,10.521321296691895,1.003513216972351,3.8272414207458496,0.909999668598175,-1.9599992036819458,0.6999997496604919,-5.121904833567547,70.01061041058594,0.03955078125,11.240685810818364,1,,0
1672219695259,11.153606414794922,1.041833519935608,4.390070915222168,-0.6999997496604919,-2.3099992275238037,1.2599996328353882,-4.967516052054861,68.51535034300092,0.0302734375,12.031669700423771,1,,0
1672219695371,10.444680213928223,0.9125024676322937,3.8152663707733154,1.7499994039535522,1.9599992036819458,3.359998941421509,-4.6912847766769525,69.93359989642484,0.022705078125,11.157072331244093,1,,0
1672219695477,10.308164596557617,1.197509765625,3.951782464981079,1.8899993896484375,-3.359998941421509,-0.909999668598175,-6.190844905711795,69.02495895310935,-0.00634765625,11.104452784312382,0,,0
1672219695583,9.97525691986084,0.969982922077179,3.633244752883911,1.329999566078186,-5.739997863769531,-2.3799991607666016,-5.220458419616261,69.98707716941912,0.027587890625,10.660538678730612,0,,0
1672219695689,10.061477661132812,0.9651929140090942,2.9171338081359863,4.759998321533203,-9.309996604919434,0.4199998676776886,-5.264097711390438,73.83149033304522,0.012939453125,10.520199605582489,0,,0
1672219695795,9.441167831420898,0.9891431331634521,3.2452516555786133,5.109997749328613,-12.1799955368042,1.1199995279312134,-5.658356477859722,71.03040522690773,0.010498046875,10.032233672865527,0,,0
1672219695902,8.737031936645508,0.8933423161506653,2.842888355255127,6.789997577667236,-10.91999626159668,0.8399997353553772,-5.553422115562165,71.97595317039743,-0.011962890625,9.231240531815548,0,,0
1672219696007,8.473579406738281,0.8119116425514221,2.375859498977661,7.209997177124023,-2.72999906539917,1.609999418258667,-5.271127383442063,74.3373322239635,0.021240234375,8.837729167410144,0,,0
1672219696113,7.692802906036377,0.8741821646690369,1.7675244808197021,4.059998512268066,-15.609993934631348,-3.289998769760132,-6.319788840281022,77.06011182719722,0.02294921875,7.941508282338067,0,,0
1672219696219,7.752678394317627,0.6370752453804016,2.3590943813323975,6.159997940063477,-1.609999418258667,0.7699997425079346,-4.495103409510692,73.07530379151186,0.01708984375,8.12866615466707,0,,0
1672219696324,9.022039413452148,1.0202783346176147,2.117197275161743,9.589996337890625,-7.2799973487854,9.169997215270996,-6.282759130018109,76.79339666740916,0.013427734375,9.323126479884653,0,,0
1672219696429,10.67939281463623,1.2238550186157227,2.363884449005127,2.4499990940093994,-22.119991302490234,1.4699995517730713,-6.384347350025269,77.51881972542023,0.02001953125,11.006143815348912,0,,0
1672219696535,10.066267967224121,1.0657837390899658,1.9327808618545532,2.72999906539917,-4.129998683929443,-0.06999997049570084,-5.9361390419385724,79.13115958692038,0.01513671875,10.3054008959585,0,,0
1672219696641,9.980047225952148,1.1160790920257568,1.7483643293380737,1.329999566078186,-2.169999122619629,1.3999994993209839,-6.285988354403714,80.06341581712766,0.01513671875,10.193319037486955,0,,0
1672219696746,10.102192878723145,0.9747729897499084,2.057321786880493,0.6299998164176941,1.5399994850158691,1.2599996328353882,-5.401285350009518,78.48906775269172,0.022216796875,10.355532640827498,0,,0
1672219696852,10.042317390441895,1.041833519935608,1.8178199529647827,-0.909999668598175,-1.8899993896484375,-1.7499994039535522,-5.828865052100808,79.73965170503297,0.0234375,10.258558623658102,0,,0
1672219696959,9.936936378479004,1.1184741258621216,2.1674928665161133,-2.169999122619629,7.979996681213379,-2.3799991607666016,-6.2756851529431215,77.69509942352833,0.022705078125,10.231896905586993,0,,0
1672219697071,10.243498802185059,1.0250684022903442,1.9567310810089111,4.5499982833862305,16.02999496459961,5.319998264312744,-5.613735184104021,79.18554129912435,0.02197265625,10.47897082079758,0,,0
1672219697178,9.996811866760254,0.9148975014686584,2.3087990283966064,1.1199995279312134,-3.779998779296875,9.519996643066406,-5.095680630548616,76.99535783131486,0.020751953125,10.300671720383935,0,,0
1672219697285,8.200547218322754,0.37601807713508606,1.722019076347351,4.409998416900635,-23.659990310668945,6.929997444152832,-2.5693734943756126,78.1408623008653,0.010986328125,8.387831303357121,0,,0
1672219697389,8.84720230102539,0.7089257836341858,1.9639160633087158,-6.719997882843018,-16.79999351501465,3.359998941421509,-4.472899056860113,77.4843312675977,0.02978515625,9.090243705517048,0,,0
1672219697495,7.949069976806641,0.7735913395881653,1.6166383028030396,-5.17999792098999,8.81999683380127,-8.329997062683105,-5.447607153880811,78.50427937321045,0.031494140625,8.148599662453938,1,,0
1672219697601,8.32269287109375,0.6825805902481079,1.4633569717407227,-3.149998903274536,21.55999183654785,-5.249998092651367,-4.618057503438613,80.02776639598895,0.035400390625,8.477885733806534,1,,0
1672219697706,10.013577461242676,0.9532178044319153,2.414179801940918,-9.729996681213379,-7.419997215270996,-2.589998960494995,-5.287153558392244,76.44519569970764,0.028564453125,10.34449717826308,1,,0
1672219697811,10.317744255065918,0.9508227705955505,2.5267457962036133,-1.2599996328353882,22.259990692138672,-2.169999122619629,-5.114866177779624,76.2394701911366,0.02734375,10.66509984822746,1,,0
1672219697919,9.740545272827148,0.9460327625274658,2.155517578125,-1.9599992036819458,5.879998207092285,-0.6299998164176941,-5.417103039511044,77.5219200826882,0.02734375,10.020950864532592,1,,0
1672219698026,9.802815437316895,0.8574170470237732,2.7183473110198975,-2.7999989986419678,2.7999989986419678,-0.7699997425079346,-4.817831517517091,74.50116161568799,0.038330078125,10.208808284709557,1,,0
1672219698132,10.312954902648926,0.9388477206230164,2.644101619720459,0.2099999338388443,11.969995498657227,-2.099999189376831,-5.039509812883973,75.61988680633343,0.03271484375,10.687831737167174,1,,0
1672219698238,10.336904525756836,1.2142750024795532,3.053650140762329,-4.759998321533203,4.409998416900635,-3.149998903274536,-6.427669053207792,73.5422043182134,0.017578125,10.846697107342708,1,,0
1672219698345,10.303374290466309,1.3460010290145874,2.943479061126709,1.1899995803833008,10.00999641418457,-1.329999566078186,-7.159518089379053,74.05636333180425,0.011962890625,10.799782846096573,1,,0
1672219698455,10.650651931762695,1.3292359113693237,3.3769776821136475,1.1899995803833008,1.9599992036819458,-2.7999989986419678,-6.78438964283984,72.4078604804437,0.0244140625,11.251987955251638,1,,0
1672219698563,10.221943855285645,1.4633569717407227,3.3362624645233154,-0.7699997425079346,1.7499994039535522,-0.4199998676776886,-7.749947444012794,71.92422930393894,0.037109375,10.851737051713947,1,,0
1672219698670,10.068662643432617,1.1855347156524658,2.792593002319336,1.1899995803833008,-5.5999979972839355,-0.48999980092048645,-6.47319832828523,74.49838461082494,0.0283203125,10.5157993355653,1,,0
1672219698776,10.011181831359863,1.1520044803619385,2.9794044494628906,-0.48999980092048645,0.8399997353553772,2.2399990558624268,-6.293778891832326,73.42659143367908,0.046875,10.508459775666607,1,,0
1672219698882,10.147698402404785,1.2837305068969727,3.0105397701263428,-1.7499994039535522,2.659999132156372,1.1899995803833008,-6.915056872676963,73.4758425041473,0.035400390625,10.66241513860809,1,,0
1672219698986,10.760823249816895,1.3555811643600464,3.599714517593384,-1.1899995803833008,1.1899995803833008,0.0,-6.8126422703698974,71.50386237522967,0.037353515625,11.42763588478125,1,,0
1672219699091,10.983559608459473,1.2238550186157227,3.650009870529175,-1.329999566078186,4.339998245239258,0.6299998164176941,-6.036043185702856,71.6175400737104,0.0498046875,11.638684411656401,1,,0
1672219699197,9.896221160888672,1.1208691596984863,3.362607479095459,0.27999988198280334,-5.949997425079346,-1.329999566078186,-6.121043325477703,71.23290604305579,0.03515625,10.511834758825533,1,,0
1672219699303,9.730964660644531,1.123264193534851,3.111130475997925,0.48999980092048645,0.06999997049570084,-0.06999997049570084,-6.274427274945555,72.27016830481334,0.03466796875,10.277768654424623,1,,0
1672219699407,11.381133079528809,1.3699512481689453,3.6547999382019043,-0.5599997639656067,-1.9599992036819458,2.3099992275238037,-6.537919324068637,72.196723942187,0.03662109375,12.03181279710523,1,,0
1672219699515,10.775193214416504,1.2286450862884521,3.6068994998931885,-0.9799996018409729,-1.0499995946884155,-1.0499995946884155,-6.171312196086216,71.4924912946527,0.04150390625,11.429089270733604,1,,0
1672219699625,9.872270584106445,1.3795312643051147,3.384162664413452,1.1899995803833008,-2.3099992275238037,0.8399997353553772,-7.530107443263999,71.0785538343008,0.019775390625,10.526983895409865,0,,0
1672219699742,10.696157455444336,1.183139681816101,3.573369264602661,0.5599997639656067,-6.369997501373291,0.27999988198280334,-5.989201549410343,71.5265716672603,0.019775390625,11.339160979523674,0,,0
1672219699850,9.977651596069336,1.290915608406067,3.120710611343384,1.1899995803833008,-6.929997444152832,-0.909999668598175,-7.0393519929745185,72.63188026336276,0.040771484375,10.53369969195641,0,,0
1672219699957,10.087822914123535,1.0298584699630737,3.4584083557128906,0.13999994099140167,-0.9799996018409729,1.3999994993209839,-5.516047513921586,71.07674713279661,0.03515625,10.713793351084165,0,,0
1672219700068,9.714200019836426,1.1543995141983032,3.230881452560425,0.8399997353553772,-0.48999980092048645,1.2599996328353882,-6.4336669184337545,71.60320125778135,0.009765625,10.302277186344302,0,,0
1672219700175,9.941726684570312,1.1759546995162964,2.9267139434814453,1.609999418258667,-5.389997959136963,0.8399997353553772,-6.473665331146685,73.59626282339791,0.0185546875,10.430074469196306,0,,0
1672219700282,9.3309965133667,1.0394384860992432,2.845283269882202,1.7499994039535522,-2.099999189376831,-1.2599996328353882,-6.082071295444415,73.04206192854552,0.040771484375,9.810380481139218,0,,0
1672219700387,9.28070068359375,1.0083032846450806,2.212998151779175,0.909999668598175,-11.899994850158691,1.8899993896484375,-6.0327512761863815,76.58817992850197,0.048095703125,9.594031556757649,0,,0
1672219700493,8.863967895507812,0.9891431331634521,1.9998414516448975,2.4499990940093994,-15.959993362426758,2.099999189376831,-6.212492053619826,77.28609841670566,0.043701171875,9.140442922648486,0,,0
1672219700598,8.174201965332031,0.787961483001709,1.9232007265090942,3.219998836517334,-12.10999584197998,-1.329999566078186,-5.360596732457291,76.76041606537551,0.030517578125,8.434284919492429,0,,0
1672219700703,7.491621494293213,0.7735913395881653,1.6453784704208374,10.00999641418457,0.0,-4.129998683929443,-5.759205210621975,77.61285027541201,-0.002685546875,7.709092455365047,0,,0
1672219700810,9.513017654418945,1.0585986375808716,2.3399341106414795,1.1899995803833008,6.019997596740723,11.829995155334473,-6.167341930411312,76.18118391493392,0.007568359375,9.8535997285722,0,,0
1672219700916,10.676997184753418,1.2358301877975464,2.0094215869903564,1.609999418258667,-11.129995346069336,1.8899993896484375,-6.4895025562811695,79.34154927056426,0.020263671875,10.934501371830677,0,,0
1672219701023,10.056687355041504,1.0202783346176147,1.9758912324905396,2.3799991607666016,-7.489997386932373,-2.169999122619629,-5.68503500100503,78.88437858011125,0.01904296875,10.299615264648226,0,,0
1672219701129,9.874666213989258,1.0322535037994385,1.9639160633087158,1.2599996328353882,3.779998779296875,1.329999566078186,-5.853936170547579,78.75154711475659,-0.00390625,10.120847120549206,0,,0
1672219701233,10.05908203125,1.1424243450164795,1.961521029472351,-0.2099999338388443,2.4499990940093994,0.0,-6.360607466070507,78.96579090382386,-0.01123046875,10.312023537820558,0,,0
1672219701340,9.807605743408203,1.101709008216858,1.901645541191101,-1.81999933719635,1.7499994039535522,0.2099999338388443,-6.293050620171828,79.02679730266229,-0.0244140625,10.05082827040895,0,,0
1672219701444,10.138117790222168,1.0681787729263306,2.093247175216675,-5.879998207092285,4.409998416900635,1.1899995803833008,-5.891279258854648,78.33390670082397,-0.02294921875,10.406926633540865,0,,0
1672219701550,9.872270584106445,0.9292676448822021,2.0621118545532227,-1.7499994039535522,11.129995346069336,1.1199995279312134,-5.2643951310207635,78.2017402704857,-0.0029296875,10.128058557410066,0,,0
1672219701654,9.63037395477295,1.051413655281067,2.3590943813323975,0.13999994099140167,5.039998531341553,-1.2599996328353882,-6.053111653167964,76.23564832034106,-0.024658203125,9.970702055688694,0,,0
1672219701759,9.728569984436035,1.0394384860992432,2.45489501953125,-2.169999122619629,4.199998378753662,1.4699995517730713,-5.914547203650965,75.8377090034581,-0.016845703125,10.087220423157877,0,,0
1672219701864,9.79563045501709,0.9364526867866516,2.332749128341675,5.109997749328613,0.34999987483024597,-0.4199998676776886,-5.313130710411768,76.60497735182406,-0.01025390625,10.113013306706716,0,,0
1672219701972,10.219549179077148,0.9484277963638306,2.5578808784484863,5.039998531341553,-0.13999994099140167,0.2099999338388443,-5.144362023178482,75.9479614812117,-0.0068359375,10.577403050693698,0,,0
1672219702078,9.87945556640625,1.0705738067626953,2.2417383193969727,-0.34999987483024597,-4.619998455047607,4.5499982833862305,-6.032470560749024,77.21554687603202,-0.021240234375,10.187009436383898,0,,0
1672219702184,8.48794937133789,0.7448511123657227,2.126777410507202,-4.199998378753662,-5.17999792098999,3.9199984073638916,-4.865432637401307,75.93332851726227,-0.01904296875,8.78198553083706,0,,0
1672219702301,8.885522842407227,1.13284432888031,1.5855029821395874,-1.5399994850158691,2.029999256134033,4.269998550415039,-7.153831710389217,79.88281188927431,0.00244140625,9.096684679749563,1,,0
1672219702405,7.951465129852295,0.6730005145072937,2.1674928665161133,-6.579997539520264,7.2799973487854,-5.319998264312744,-4.668360925051127,74.75218224193958,0.0205078125,8.26902368663812,1,,0
1672219702509,8.16462230682373,0.9532178044319153,1.6980689764022827,0.8399997353553772,17.919992446899414,2.169999122619629,-6.520826060915476,78.25117660615365,0.005859375,8.393635674985516,1,,0
1672219702616,9.90101146697998,1.1879297494888306,2.4980053901672363,-1.1199995279312134,-4.059998512268066,-1.5399994850158691,-6.635684818879558,75.83990312505155,0.00927734375,10.280137941112184,1,,0
1672219702725,10.11895751953125,1.1208691596984863,2.703977108001709,-0.6999997496604919,10.639996528625488,-1.5399994850158691,-6.108225514643647,75.03904478568147,-0.016357421875,10.533809432291743,1,,0
1672219702833,10.1692533493042,1.1783496141433716,2.5171656608581543,-1.0499995946884155,5.039998531341553,-0.2099999338388443,-6.417609934185622,76.09718692402285,-0.015869140625,10.542217245897088,1,,0
1672219702941,10.456655502319336,1.051413655281067,3.0584399700164795,-1.81999933719635,3.779998779296875,-3.149998903274536,-5.512338765305044,73.69646716530094,-0.02099609375,10.945372082249701,1,,0
1672219703047,10.308164596557617,1.0753638744354248,3.2548317909240723,-0.9799996018409729,1.1199995279312134,-0.13999994099140167,-5.681108964681317,72.47634265407349,-0.015625,10.863176091704242,1,,0
1672219703154,10.430310249328613,1.2262500524520874,3.1949563026428223,-0.8399997353553772,5.5999979972839355,-2.7999989986419678,-6.413727033685992,72.96940892443983,-0.008056640625,10.977377048465875,1,,0
1672219703262,10.145302772521973,0.9460327625274658,3.324287176132202,-1.8899993896484375,1.609999418258667,-0.7699997425079346,-5.063902314451894,71.85770565396047,-0.00146484375,10.71788372596542,1,,0
1672219703366,10.066267967224121,1.1807446479797363,3.5182838439941406,-0.2099999338388443,5.17999792098999,0.7699997425079346,-6.318549476775956,70.73485449589803,-0.008544921875,10.728570730465705,1,,0
1672219703472,9.891430854797363,1.3076807260513306,3.4296681880950928,1.0499995946884155,-0.48999980092048645,0.4199998676776886,-7.119829287339262,70.87697043711673,0.0302734375,10.550500325432672,1,,0
1672219703578,9.757309913635254,1.1879297494888306,3.16382098197937,0.909999668598175,-5.949997425079346,-1.0499995946884155,-6.606088828023097,72.03464323261947,0.024169921875,10.325988429514062,1,,0
1672219703685,10.317744255065918,1.221459984779358,3.3985328674316406,0.8399997353553772,1.0499995946884155,2.8699989318847656,-6.415488580184511,71.76877880457702,0.02392578125,10.931506605147163,1,,0
1672219703791,11.649375915527344,1.3675562143325806,3.6883301734924316,-1.1199995279312134,-3.6399986743927,1.4699995517730713,-6.3858300084435164,72.43159714889933,0.039306640625,12.295606885767082,1,,0
1672219703899,11.031460762023926,1.3052856922149658,3.501518726348877,-0.5599997639656067,0.06999997049570084,0.6299998164176941,-6.434570277768834,72.38993388730293,0.04443359375,11.647211283107492,1,,0
1672219704007,9.441167831420898,1.1304492950439453,3.072810173034668,-2.4499990940093994,6.649997711181641,-0.8399997353553772,-6.49557990218766,71.9715223493451,0.038818359375,9.992783795781207,0,,0
1672219704121,9.944121360778809,1.1639795303344727,3.3362624645233154,0.0,3.149998903274536,1.609999418258667,-6.332370647088706,71.4533467219934,0.036376953125,10.55324808848547,0,,0
1672219704226,11.862532615661621,1.386716365814209,4.028422832489014,1.81999933719635,0.4199998676776886,2.659999132156372,-6.316379219416691,71.24291664512019,0.05517578125,12.604398155174705,0,,0
1672219704332,10.938055038452148,1.1759546995162964,3.9134621620178223,-1.609999418258667,1.5399994850158691,0.13999994099140167,-5.7801607798350725,70.31359837222402,0.052490234375,11.676433683838061,0,,0
1672219704439,10.744057655334473,1.3004956245422363,3.6284546852111816,-0.5599997639656067,1.7499994039535522,0.34999987483024597,-6.542099709995478,71.33928224721905,0.05517578125,11.41454104084942,0,,0
1672219704552,10.001602172851562,1.1639795303344727,3.4584083557128906,0.7699997425079346,-6.229997634887695,1.1899995803833008,-6.276695262785052,70.92536001575341,0.054443359375,10.64647747970621,0,,0
1672219704658,9.263936042785645,1.0825488567352295,3.032094955444336,1.5399994850158691,-4.899998188018799,-0.5599997639656067,-6.337237955183941,71.87667987080248,0.0439453125,9.807447315732707,0,,0
1672219704765,9.668694496154785,1.243015170097351,2.965034246444702,4.4799981117248535,0.27999988198280334,2.2399990558624268,-7.007148871222763,72.95114279575827,0.04150390625,10.18921822593156,0,,0
1672219704871,9.290281295776367,1.0777587890625,2.9362940788269043,1.7499994039535522,-7.2799973487854,-2.099999189376831,-6.312157642787898,72.46029474950176,0.039794921875,9.802689094294871,0,,0
1672219704975,9.354947090148926,1.0681787729263306,2.8596534729003906,-0.13999994099140167,-15.1199951171875,-1.81999933719635,-6.231749782710051,73.00246950983063,0.021240234375,9.840409490234007,0,,0
1672219705086,9.402847290039062,1.2478052377700806,2.0716919898986816,5.5999979972839355,-17.009994506835938,0.34999987483024597,-7.384191642111217,77.57476515819027,0.006591796875,9.708885763681215,0,,0
1672219705192,8.77774715423584,0.8119116425514221,2.2489235401153564,0.2099999338388443,-19.2499942779541,0.9799996018409729,-5.1201701199297,75.62951327481983,-2.44140625E-4,9.097565757294142,0,,0
1672219705299,7.18026876449585,0.910107433795929,1.290915608406067,5.45999813079834,1.3999994993209839,-2.3099992275238037,-7.110970100572561,79.80787387334608,0.013916015625,7.351939756246087,0,,0
1672219705405,7.932304859161377,0.8143066763877869,2.0381617546081543,1.9599992036819458,10.4299955368042,10.709996223449707,-5.678105283905573,75.58989000071857,0.010498046875,8.230349875906388,0,,0
1672219705510,10.758428573608398,1.027463436126709,2.246528387069702,1.609999418258667,11.549995422363281,1.9599992036819458,-5.340868203795522,78.20522785950305,0.001953125,11.038403701619222,0,,0
1672219705615,9.86987590789795,0.8550220131874084,2.4117848873138428,0.0,-20.01999282836914,-1.1899995803833008,-4.8103033911188975,76.26839592457455,4.8828125E-4,10.196186513742031,0,,0
1672219705721,9.687854766845703,0.9316626191139221,1.9471509456634521,1.0499995946884155,-6.859997272491455,1.7499994039535522,-5.3860740842746555,78.63559927805483,0.010986328125,9.925417977322027,0,,0
1672219705828,10.008787155151367,0.9627978801727295,1.7483643293380737,-0.909999668598175,-5.739997863769531,-0.13999994099140167,-5.413204578205744,80.0913821291102,0.018310546875,10.20585997862453,0,,0
1672219705933,10.751243591308594,1.0777587890625,2.2776637077331543,-2.2399990558624268,-0.6999997496604919,-1.8899993896484375,-5.601000441329456,78.03867363775734,0.00390625,11.042579170310725,0,,0
1672219706040,10.262659072875977,0.9244775772094727,2.2752685546875,0.6299998164176941,9.589996337890625,2.169999122619629,-5.026015820674565,77.49951151218762,0.031982421875,10.552425173048915,0,,0
1672219706145,8.950188636779785,0.7951465249061584,2.1674928665161133,-2.169999122619629,3.4299986362457275,2.099999189376831,-4.934987456509967,76.386609156103,-0.001708984375,9.243168285626448,0,,0
1672219706251,7.752678394317627,0.9915381073951721,1.722019076347351,-3.9199984073638916,-1.7499994039535522,4.269998550415039,-7.11674235346413,77.47681497467691,-0.006591796875,8.00328181457084,0,,0
1672219706357,8.626860618591309,0.7472461462020874,2.14593768119812,-7.979996681213379,8.399996757507324,-7.629997253417969,-4.804815513489081,76.03114505135552,-0.012451171875,8.921106964228231,0,,0
1672219706464,8.346643447875977,0.8214917182922363,2.0501368045806885,-7.489997386932373,17.35999298095703,-7.55999755859375,-5.45978915001927,76.19997069743776,-0.01416015625,8.63390794522909,0,,0
1672219706570,9.582473754882812,0.8909472823143005,2.751877546310425,-2.169999122619629,-0.8399997353553772,1.8899993896484375,-5.106656952821831,73.97708846850308,-0.00732421875,10.00951648945985,0,,0
1672219706681,10.047107696533203,1.1160790920257568,2.962639331817627,-4.899998188018799,0.06999997049570084,-3.289998769760132,-6.081855428839383,73.5705378156221,-0.014404296875,10.534098794668036,1,,0
1672219706785,10.370434761047363,1.2190649509429932,2.7806177139282227,0.13999994099140167,8.259997367858887,1.7499994039535522,-6.4776997866279755,74.99037083450574,-0.007568359375,10.805733263354622,1,,0
1672219706890,10.073452949523926,1.2118799686431885,3.123105525970459,-4.129998683929443,4.129998683929443,-3.0099987983703613,-6.555020933370799,72.77482497247279,0.004150390625,10.615879403564177,1,,0
1672219706997,9.910591125488281,1.0466235876083374,3.0177247524261475,-1.81999933719635,12.10999584197998,-0.27999988198280334,-5.768842352289935,73.06477341578545,0.020263671875,10.412583736621313,1,,0
1672219707108,9.738149642944336,1.063388705253601,3.0392799377441406,-2.4499990940093994,-2.4499990940093994,-2.8699989318847656,-5.950984337474723,72.66683872788973,0.017578125,10.256684481196244,1,,0
1672219707215,10.047107696533203,1.2861255407333374,3.4272730350494385,-1.4699995517730713,2.72999906539917,-0.9799996018409729,-6.907973749282167,71.1644460640149,0.0107421875,10.693207770778624,1,,0
1672219707323,9.96088695526123,1.101709008216858,3.0584399700164795,-1.7499994039535522,2.659999132156372,-3.5699985027313232,-6.035557589434832,72.93116063473902,0.0107421875,10.477933323154616,1,,0
1672219707429,10.480606079101562,1.2382251024246216,3.2859668731689453,-0.48999980092048645,2.5199992656707764,-0.06999997049570084,-6.431993664286654,72.59231434455776,0.00439453125,11.053229549825643,1,,0
1672219707535,9.9393310546875,1.1951148509979248,3.300337076187134,-1.329999566078186,0.6299998164176941,-0.06999997049570084,-6.5101195056298415,71.63134576450857,0.02685546875,10.540912016434183,1,,0
1672219707641,9.996811866760254,1.2262500524520874,3.1255006790161133,-0.909999668598175,-0.909999668598175,0.8399997353553772,-6.677530835478037,72.63815935715967,0.00732421875,10.545553147420366,1,,0
1672219707747,9.14657974243164,1.1591894626617432,3.6883301734924316,0.5599997639656067,-2.3099992275238037,-1.1199995279312134,-6.7036846557868035,68.03839518593142,0.02783203125,9.930126920825412,0,,0
1672219707864,10.75363826751709,1.1687695980072021,3.5158889293670654,3.9899983406066895,-4.829998016357422,5.809998035430908,-5.89800302276555,71.89490649669155,0.03515625,11.37401570798457,0,,0
1672219707968,12.219389915466309,1.4537769556045532,3.9134621620178223,1.609999418258667,-6.509997367858887,4.199998378753662,-6.464269720605332,72.24147462519046,0.0341796875,12.912867359203833,0,,0
1672219708073,11.975098609924316,1.4992822408676147,3.5350489616394043,0.7699997425079346,-0.9799996018409729,-0.48999980092048645,-6.847140112473965,73.55340032377167,0.031005859375,12.575667183747354,0,,0
1672219708180,10.997930526733398,1.3244458436965942,3.2859668731689453,-0.06999997049570084,-4.199998378753662,-2.7999989986419678,-6.582058842254912,73.36488176040467,0.0390625,11.55448877948753,0,,0
1672219708288,10.595566749572754,1.0657837390899658,3.2955470085144043,0.6999997496604919,1.0499995946884155,-0.7699997425079346,-5.4863746075860345,72.72270014903884,0.03125,11.147311774974654,0,,0
1672219708395,10.700947761535645,1.01309335231781,3.1757960319519043,-1.9599992036819458,3.289998769760132,4.059998512268066,-5.1859920731094675,73.47031833575736,0.041259765625,11.208136400498823,0,,0
1672219708501,10.147698402404785,1.13284432888031,2.9865894317626953,1.609999418258667,0.6999997496604919,3.0799989700317383,-6.1127190589325275,73.60021117710815,0.02783203125,10.638554205039402,0,,0
1672219708606,9.608819007873535,1.0945240259170532,3.1302907466888428,1.9599992036819458,5.949997425079346,0.13999994099140167,-6.181383772780839,71.95580555129222,0.02587890625,10.164944944670738,0,,0
1672219708712,9.417217254638672,1.0154882669448853,3.1662158966064453,2.169999122619629,-0.7699997425079346,0.6299998164176941,-5.835980288200465,71.4165494614633,0.02001953125,9.98699756409755,0,,0
1672219708817,9.486672401428223,1.0490186214447021,2.7662477493286133,1.9599992036819458,-11.059995651245117,1.1199995279312134,-6.059660065327587,73.74368263933013,0.044677734375,9.93727930224482,0,,0
1672219708922,9.014853477478027,1.0370434522628784,2.74469256401062,1.2599996328353882,-9.589996337890625,0.7699997425079346,-6.280102813693802,73.06642887738852,0.03857421875,9.480315375197925,0,,0
1672219709028,9.01724910736084,0.9268726110458374,2.433339834213257,4.339998245239258,-14.279994010925293,1.1199995279312134,-5.667418780756083,74.89822741533915,0.041259765625,9.385681490977403,0,,0
1672219709134,8.578960418701172,0.969982922077179,2.1674928665161133,1.7499994039535522,-21.489992141723633,-1.0499995946884155,-6.25582658057615,75.82082730175391,0.031494140625,8.901542229364583,0,,0
1672219709239,8.669971466064453,0.8789722323417664,1.4274317026138306,-1.6799994707107544,-17.009994506835938,0.6299998164176941,-5.712549195392351,80.65064706171121,0.0341796875,8.830546906801791,0,,0
1672219709350,8.796907424926758,0.9244775772094727,1.4058765172958374,2.8699989318847656,-3.4999988079071045,-2.589998960494995,-5.924623588881507,80.92006650255604,0.0400390625,8.956379168803569,0,,0
1672219709456,9.503437995910645,1.0969189405441284,1.7148340940475464,1.9599992036819458,10.079997062683105,4.4799981117248535,-6.4803929418329655,79.77141226095904,0.03955078125,9.7190133693884,0,,0
1672219709561,10.51413631439209,1.25738525390625,1.4992822408676147,1.3999994993209839,-2.029999256134033,-1.4699995517730713,-6.751951800170142,81.88451623331527,0.051025390625,10.694668174008036,0,,0
1672219709666,9.697434425354004,0.83586186170578,1.9136207103729248,-0.7699997425079346,-13.789995193481445,-1.329999566078186,-4.833625556036647,78.83709103634003,0.05322265625,9.919719941059999,0,,0
1672219709772,10.08063793182373,0.9867480993270874,1.6932789087295532,1.6799994707107544,5.389997959136963,4.199998378753662,-5.513854984893359,80.46484723007698,0.03466796875,10.26937809153005,0,,0
1672219709882,10.075847625732422,1.2118799686431885,1.4154566526412964,-2.4499990940093994,-1.7499994039535522,-3.359998941421509,-6.79228492323925,82.00340938093022,0.031494140625,10.246700735889714,0,,0
1672219709987,10.909314155578613,1.3052856922149658,1.9974464178085327,3.219998836517334,10.219995498657227,2.659999132156372,-6.712390532529483,79.624326111639,0.040283203125,11.167215332186675,0,,0
1672219710094,10.547666549682617,1.2166699171066284,1.5543677806854248,-0.27999988198280334,-6.719997882843018,2.7999989986419678,-6.5102711250665255,81.61688550889964,0.0224609375,10.730778840704843,0,,0
1672219710203,8.157437324523926,0.49097901582717896,1.5735279321670532,-0.5599997639656067,7.699997425079346,4.4799981117248535,-3.3821584649570555,79.08203277057468,0.017578125,8.322309430129874,0,,0
1672219710313,7.783813953399658,0.6849756240844727,1.949545979499817,-4.619998455047607,23.51999282836914,1.5399994850158691,-4.879126335619972,75.9388709243004,0.009033203125,8.053426649129737,0,,0
1672219710420,7.9969706535339355,1.0849438905715942,1.961521029472351,-3.4999988079071045,19.10999298095703,-5.809998035430908,-7.506254570665618,76.2184033530557,0.01025390625,8.305191606954885,1,,0
1672219710529,9.455537796020508,1.0059082508087158,2.363884449005127,-1.329999566078186,-3.9199984073638916,-0.13999994099140167,-5.892443017951875,75.96375661887478,-0.0048828125,9.798315983334366,1,,0
1672219710634,10.171648025512695,1.1520044803619385,2.943479061126709,-3.0099987983703613,-5.45999813079834,-1.4699995517730713,-6.208947531358287,73.86057485571598,0.0048828125,10.651460315890102,1,,0
1672219710742,10.030342102050781,1.0466235876083374,2.8189380168914795,-3.359998941421509,14.489995002746582,-0.5599997639656067,-5.736346976346139,74.3024564862878,0.0078125,10.47137026188009,1,,0
1672219710848,10.056687355041504,1.1304492950439453,2.8404932022094727,-0.9799996018409729,1.3999994993209839,0.13999994099140167,-6.173994480208216,74.22776294184175,-0.009765625,10.511102596660127,1,,0
1672219710955,10.281819343566895,1.1903247833251953,3.182981014251709,-2.029999256134033,6.719997882843018,-2.589998960494995,-6.310796028229559,72.79884950271003,-0.019775390625,10.828852674250923,1,,0
1672219711062,10.10458755493164,1.281335473060608,2.802172899246216,-0.9799996018409729,4.339998245239258,-1.8899993896484375,-6.966754826469498,74.50040676551366,-0.004150390625,10.56393313151275,1,,0
1672219711166,10.027947425842285,1.2022998332977295,3.0057497024536133,-0.06999997049570084,-4.199998378753662,-1.8899993896484375,-6.551532845883153,73.31456661858356,0.0078125,10.537541731277017,1,,0
1672219711272,10.10937786102295,1.341210961341858,3.0177247524261475,-0.2099999338388443,-2.3799991607666016,-2.9399991035461426,-7.244972229329436,73.37924307736617,0.021484375,10.63508487324713,1,,0
1672219711380,9.908196449279785,1.3004956245422363,3.1183154582977295,-1.1199995279312134,2.029999256134033,-2.169999122619629,-7.136321623077377,72.53012717582186,0.02880859375,10.468406614400905,1,,0
1672219711488,9.63037395477295,1.326840877532959,3.123105525970459,-0.13999994099140167,-0.2099999338388443,-1.3999994993209839,-7.466478885191152,72.03225461261785,0.02001953125,10.210700140020215,1,,0
1672219711594,9.544153213500977,1.2046948671340942,3.1278955936431885,-1.8899993896484375,14.769993782043457,1.8899993896484375,-6.839729528431146,71.85453073891533,0.023681640625,10.115625592637004,1,,0
1672219711700,9.342971801757812,1.1687695980072021,3.211721420288086,-0.13999994099140167,5.109997749328613,0.13999994099140167,-6.7468154632288,71.02918168988953,0.02001953125,9.948482243196942,1,,0
1672219711807,11.30209732055664,1.4753321409225464,3.640429735183716,0.9799996018409729,-5.5999979972839355,4.129998683929443,-7.08268634695349,72.14613926737194,0.037841796875,11.965230354079376,1,,0
1672219711913,13.527070999145508,1.8681153059005737,4.35175085067749,1.8899993896484375,-13.3699951171875,2.9399991035461426,-7.489517111509702,72.16666330340104,0.052490234375,14.332105221440278,1,,0
1672219712022,11.484119415283203,1.5855029821395874,3.6476149559020996,-0.2099999338388443,10.849996566772461,0.27999988198280334,-7.496065193228797,72.37897994124035,0.051513671875,12.15334988048064,1,,0
1672219712128,10.291399002075195,1.3795312643051147,3.7074904441833496,-0.909999668598175,3.5699985027313232,0.48999980092048645,-7.187799035784082,70.1883754288741,0.062255859375,11.02549252064598,0,,0
1672219712247,10.456655502319336,1.1807446479797363,3.410507917404175,-1.1899995803833008,-0.4199998676776886,4.339998245239258,-6.127367761643842,71.93591793608016,0.0615234375,11.061978415843821,0,,0
1672219712352,10.186018943786621,1.1999047994613647,3.5278639793395996,-0.8399997353553772,-2.5199992656707764,1.329999566078186,-6.351564613515716,70.89679230669319,0.052490234375,10.846224122139104,0,,0
1672219712459,9.831555366516113,1.1807446479797363,3.2548317909240723,-0.06999997049570084,-1.0499995946884155,0.27999988198280334,-6.504318800998333,71.68237364537781,0.051513671875,10.423414451887375,0,,0
1672219712565,9.757309913635254,1.1639795303344727,2.8309133052825928,1.8899993896484375,-2.4499990940093994,-0.6299998164176941,-6.53579390255385,73.82083538001152,0.03564453125,10.226143713042003,0,,0
1672219712672,9.752519607543945,1.1256592273712158,3.0488600730895996,2.099999189376831,-12.8099946975708,0.48999980092048645,-6.286611835760934,72.63956525881693,0.04150390625,10.279800345190319,0,,0
1672219712779,9.007668495178223,1.1208691596984863,2.8404932022094727,0.27999988198280334,-8.259997367858887,-0.6999997496604919,-6.767883069097308,72.49776550447459,0.029541015625,9.511195562282785,0,,0
1672219712886,8.7322416305542,1.1855347156524658,2.184257984161377,3.9199984073638916,-7.839996814727783,2.099999189376831,-7.5030898080039075,75.95636129486162,0.0263671875,9.079015331949481,0,,0
1672219712992,8.638835906982422,1.0346485376358032,2.105222225189209,3.0799989700317383,-20.649991989135742,-1.81999933719635,-6.637192038445833,76.30437592538131,0.0185546875,8.951644767395058,0,,0
1672219713098,8.320298194885254,0.8334668278694153,2.1722826957702637,4.059998512268066,-9.309996604919434,-0.5599997639656067,-5.536032728353965,75.36771383151319,0.009765625,8.639493105229754,0,,0
1672219713207,8.6124906539917,0.8861572742462158,1.6046631336212158,4.059998512268066,-4.829998016357422,5.249998092651367,-5.7759013954240155,79.44577528836815,0.017333984375,8.805408210423689,0,,0
1672219713312,8.708291053771973,0.9532178044319153,1.7675244808197021,2.029999256134033,-14.349995613098145,0.9799996018409729,-6.122908234752564,78.52652121832664,0.03369140625,8.936839488890238,0,,0
1672219713420,10.308164596557617,1.1424243450164795,1.5783178806304932,4.5499982833862305,-11.829995155334473,5.669997692108154,-6.251847291754141,81.29485667137071,0.019287109375,10.490685300118773,0,,0
1672219713528,9.860296249389648,0.9484277963638306,1.6453784704208374,-1.1899995803833008,-6.369997501373291,-3.4299986362457275,-5.419697724574194,80.52639479596525,0.02783203125,10.041525169094959,0,,0
1672219713633,9.833950996398926,1.0083032846450806,1.8968555927276611,-2.7999989986419678,7.769996643066406,-0.6999997496604919,-5.74900069176911,79.08238807090284,0.0283203125,10.065849633938692,0,,0
1672219713739,11.141631126403809,1.3699512481689453,1.446591854095459,-0.34999987483024597,4.759998321533203,0.27999988198280334,-6.952008415899142,82.60229292698997,0.022216796875,11.318362892730786,0,,0
1672219713845,9.48188304901123,0.9867480993270874,1.4274317026138306,-4.409998416900635,-0.5599997639656067,-3.6399986743927,-5.875461279945028,81.43880646534214,0.02978515625,9.639364047087295,0,,0
1672219713952,7.992180347442627,0.7400610446929932,1.7531543970108032,-4.269998550415039,15.399994850158691,3.4999988079071045,-5.168204035676255,77.62763303525567,0.012939453125,8.215606331591026,0,,0
1672219714059,8.940608024597168,1.1160790920257568,1.949545979499817,-4.759998321533203,41.299983978271484,4.5499982833862305,-6.9538261221597475,77.69891004621365,0.0087890625,9.218504971812523,0,,0
1672219714167,8.159832000732422,0.8622070550918579,2.09564208984375,-6.719997882843018,6.999997615814209,0.7699997425079346,-5.843504085923293,75.59635516844651,0.003173828125,8.468646589317075,0,,0
1672219714274,9.024434089660645,1.1136841773986816,2.117197275161743,1.3999994993209839,-6.0899977684021,1.1899995803833008,-6.850991297652556,76.79677833487125,0.015869140625,9.336124859253417,1,,0
1672219714394,9.723779678344727,0.9891431331634521,2.713557243347168,-0.34999987483024597,-6.299997806549072,-1.4699995517730713,-5.596005003458482,74.40749358183763,0.005859375,10.14365261056372,1,,0
1672219714498,9.853110313415527,0.8741821646690369,2.5578808784484863,-1.1199995279312134,5.17999792098999,-0.48999980092048645,-4.908230030249412,75.44717988714416,0.0126953125,10.217178274538096,1,,0
1672219714604,9.896221160888672,1.0442285537719727,2.8596534729003906,-2.5199992656707764,7.349997520446777,-2.7999989986419678,-5.788329819701381,73.88260014373442,0.0068359375,10.353899000994973,1,,0
1672219714710,9.608819007873535,1.0538086891174316,2.881208658218384,-2.169999122619629,12.599995613098145,-1.1899995803833008,-5.996931001039489,73.3086175070038,0.007080078125,10.086688198389188,1,,0
1672219714816,10.322534561157227,1.171164631843567,2.9506642818450928,-0.8399997353553772,-2.5199992656707764,-2.72999906539917,-6.225657450911528,74.04758078515825,0.016357421875,10.799665090424014,1,,0
1672219714924,10.279424667358398,1.1136841773986816,3.252436637878418,0.0,0.27999988198280334,-1.1199995279312134,-5.897394825260621,72.44249360687378,-0.0205078125,10.839059369811496,1,,0
1672219715029,10.33450984954834,1.341210961341858,3.252436637878418,-1.2599996328353882,3.219998836517334,-2.7999989986419678,-7.056964772012143,72.53037189577282,-0.018798828125,10.916926525201545,1,,0
1672219715136,10.293794631958008,1.027463436126709,3.5158889293670654,-4.4799981117248535,20.579992294311523,-1.1199995279312134,-5.395932984706172,71.14218229875556,-0.001953125,10.926086399125293,1,,0
1672219715242,9.807605743408203,1.231040120124817,3.154240846633911,1.1199995279312134,5.879998207092285,1.0499995946884155,-6.814034772097241,72.17160123576959,0.02099609375,10.375636149849527,1,,0
1672219715347,9.44595718383789,1.1208691596984863,3.214116334915161,0.4199998676776886,-20.92999267578125,-1.4699995517730713,-6.4095195717012325,71.20842469040772,0.052001953125,10.040567643636006,1,,0
1672219715452,10.255474090576172,1.5878980159759521,3.503913640975952,2.029999256134033,2.659999132156372,-0.2099999338388443,-8.335574027306222,71.13661267257659,0.037841796875,10.953245169128502,1,,0
1672219715559,12.41578197479248,1.650168538093567,3.9278321266174316,1.7499994039535522,-11.75999641418457,1.9599992036819458,-7.221969987570306,72.44481549189355,0.061767578125,13.126407104176822,1,,0
1672219715673,12.928316116333008,1.695673942565918,3.690725326538086,3.149998903274536,0.13999994099140167,4.059998512268066,-7.188254557117952,74.06722179416528,0.062255859375,13.551314370173932,1,,0
1672219715780,10.794353485107422,1.19271981716156,3.2787818908691406,-0.6999997496604919,5.389997959136963,1.8899993896484375,-6.035180681714139,73.10385583824035,0.0615234375,11.344208143876418,1,,0
1672219715884,10.61951732635498,1.4178515672683716,2.86444354057312,1.7499994039535522,11.689995765686035,2.8699989318847656,-7.345302278761946,74.90463780698764,0.04248046875,11.090062583623686,0,,0
1672219715992,10.02076244354248,0.9771680235862732,3.4464333057403564,-0.48999980092048645,-0.34999987483024597,2.589998960494995,-5.268511785041077,71.0204078702059,0.05078125,10.641825023328817,0,,0
1672219716102,9.776470184326172,1.111289143562317,2.8668384552001953,1.4699995517730713,-4.269998550415039,-0.8399997353553772,-6.2250289668685275,73.65682631583877,0.05517578125,10.24856553639741,0,,0
1672219716209,9.63037395477295,0.9795630574226379,3.302731990814209,1.1199995279312134,0.34999987483024597,-1.1899995803833008,-5.495802277108469,71.07062042644247,0.05712890625,10.227985378136983,0,,0
1672219716316,9.850715637207031,0.9915381073951721,3.1374757289886475,3.359998941421509,-5.949997425079346,0.34999987483024597,-5.478437998926029,72.33320248943063,0.045166015625,10.385735425742597,0,,0
1672219716427,9.788445472717285,1.19271981716156,2.9578492641448975,4.689998149871826,-10.779995918273926,1.329999566078186,-6.652961221088444,73.18635753330577,0.06591796875,10.294907362575534,0,,0
1672219716532,9.218430519104004,1.1280542612075806,2.4572901725769043,1.5399994850158691,-6.159997940063477,-1.1199995279312134,-6.7433830369966445,75.07414185273268,0.0634765625,9.606781076095142,0,,0
1672219716639,8.751401901245117,1.0849438905715942,2.3399341106414795,4.129998683929443,-14.769993782043457,-1.0499995946884155,-6.829584515279149,75.03052823773243,0.049072265625,9.123564551475964,0,,0
1672219716746,8.784932136535645,0.9172925353050232,1.9232007265090942,3.709998607635498,-16.309993743896484,1.3999994993209839,-5.824080007284961,77.6515966049267,0.048095703125,9.039643758097338,0,,0
1672219716853,8.471184730529785,0.8286768198013306,1.7052539587020874,-1.81999933719635,-16.869993209838867,0.9799996018409729,-5.477873247265454,78.61843675731794,0.037841796875,8.680758438875383,0,,0
1672219716959,8.684341430664062,0.8669971227645874,1.3699512481689453,3.709998607635498,-19.879993438720703,3.0099987983703613,-5.632016462133493,81.03548800647923,0.043701171875,8.8343781058765,0,,0
1672219717069,8.684341430664062,0.8550220131874084,1.5639477968215942,3.4299986362457275,-4.5499982833862305,1.1899995803833008,-5.534503406837192,79.79112912070305,0.03759765625,8.865369785776931,0,,0
1672219717176,10.356064796447754,1.0849438905715942,1.4729371070861816,1.1199995279312134,-5.739997863769531,6.649997711181641,-5.921559858737224,81.90514729030859,0.0166015625,10.516402666089983,0,,0
1672219717284,10.126143455505371,1.0490186214447021,1.2789404392242432,3.779998779296875,-1.81999933719635,-2.4499990940093994,-5.868173180325643,82.80160946488137,0.009033203125,10.260356231471453,0,,0
1672219717391,9.833950996398926,1.0705738067626953,1.4489868879318237,-1.0499995946884155,6.789997577667236,-0.7699997425079346,-6.14718650114274,81.61804575525386,0.009765625,9.99761388915876,0,,0
1672219717496,10.57401180267334,1.1567944288253784,1.4346168041229248,1.1899995803833008,12.739995002746582,3.849998712539673,-6.187077938344439,82.27363846959676,0.009765625,10.73340693015542,0,,0
1672219717604,9.994417190551758,1.1855347156524658,1.456171989440918,1.9599992036819458,0.27999988198280334,3.9899983406066895,-6.69476415297267,81.71041754778162,0.028564453125,10.169282393740769,0,,0
1672219717710,7.984995365142822,0.65863037109375,1.2837305068969727,-6.579997539520264,0.5599997639656067,5.109997749328613,-4.6557668203484015,80.86683211282254,0.035888671875,8.114302740310926,0,,0
1672219717815,8.521479606628418,0.8143066763877869,1.635798454284668,-7.489997386932373,22.74999237060547,-1.8899993896484375,-5.361270046951447,79.13358635952635,0.02978515625,8.715190567763498,0,,0
1672219717920,8.614885330200195,0.8765771985054016,1.5447876453399658,-7.069997310638428,18.619993209838867,-3.9899983406066895,-5.719330035835915,79.83398569820216,0.025634765625,8.796078996156929,0,,0
1672219718025,8.710686683654785,0.9172925353050232,2.2489235401153564,-0.34999987483024597,4.059998512268066,2.7999989986419678,-5.821936112193844,75.52351210896488,0.005859375,9.042961085032497,1,,0
1672219718129,9.790840148925781,1.0322535037994385,2.44531512260437,-0.48999980092048645,-3.9899983406066895,1.3999994993209839,-5.840388157575588,75.97694795417098,0.011962890625,10.144242907519558,1,,0
1672219718237,10.145302772521973,0.9316626191139221,2.735112428665161,-2.169999122619629,6.789997577667236,-1.3999994993209839,-5.066951834655086,74.91211040402789,0.017333984375,10.548744170726431,1,,0
1672219718345,10.205178260803223,1.1807446479797363,2.682421922683716,-3.0799989700317383,9.029996871948242,-3.0099987983703613,-6.384811023596395,75.27298523796948,0.03564453125,10.617683769532679,1,,0
1672219718452,10.277029037475586,1.051413655281067,2.8788135051727295,-3.0099987983703613,4.409998416900635,-1.9599992036819458,-5.626339789911498,74.35131547116646,0.012451171875,10.724288494310136,1,,0
1672219718557,10.353670120239258,0.9891431331634521,2.993774652481079,-1.1899995803833008,4.689998149871826,-0.4199998676776886,-5.243682425289168,73.87271877937239,0.0224609375,10.823103795421064,1,,0
1672219718667,10.190808296203613,1.123264193534851,2.8069629669189453,1.5399994850158691,3.149998903274536,-1.3999994993209839,-6.065822625758487,74.60027863589066,0.03125,10.629832419944554,1,,0
1672219718773,10.018366813659668,1.123264193534851,3.0177247524261475,-2.4499990940093994,4.269998550415039,-3.219998836517334,-6.127568946760589,73.23668855076824,0.034423828125,10.523120199965422,1,,0
1672219718879,10.183623313903809,1.2789404392242432,3.192561149597168,-1.8899993896484375,6.509997367858887,-0.7699997425079346,-6.833568791986852,72.59381640832468,0.0361328125,10.748689182429896,1,,0
1672219718984,9.927356719970703,1.2046948671340942,3.422482967376709,-0.7699997425079346,2.659999132156372,-1.2599996328353882,-6.544623954152207,70.97822916601737,0.029296875,10.569630591010757,1,,0
1672219719090,9.335786819458008,1.111289143562317,3.2955470085144043,1.3999994993209839,4.339998245239258,-1.1199995279312134,-6.404477776745664,70.5568904712894,0.036865234375,9.962555354139498,1,,0
1672219719197,9.671089172363281,1.0059082508087158,3.621269702911377,1.4699995517730713,-4.5499982833862305,0.2099999338388443,-5.563469975711228,69.47194923991883,0.02880859375,10.375712575532882,1,,0
1672219719304,12.185859680175781,1.5112574100494385,3.9757325649261475,3.0099987983703613,-0.6299998164176941,6.439997673034668,-6.724187894461412,71.93067741529386,0.04150390625,12.906801483410883,1,,0
1672219719412,13.033697128295898,1.4681470394134521,4.390070915222168,2.099999189376831,-7.209997177124023,3.0799989700317383,-6.093228391967944,71.38520453553195,0.056884765625,13.831320949286328,1,,0
1672219719528,11.795472145080566,1.37234628200531,3.7482056617736816,-0.2099999338388443,5.529997825622559,-1.8899993896484375,-6.327202672816922,72.37148785950359,0.0595703125,12.452531595063617,0,,0
1672219719647,10.324929237365723,0.8167017102241516,3.573369264602661,-0.06999997049570084,14.699995040893555,0.7699997425079346,-4.27489918657986,70.90970295563929,0.0546875,10.956282824995872,0,,0
1672219719753,10.133328437805176,1.1208691596984863,3.3266823291778564,-0.2099999338388443,-7.55999755859375,1.0499995946884155,-5.999407355077258,71.82544815944152,0.039306640625,10.724155361652427,0,,0
1672219719858,9.903406143188477,1.0442285537719727,3.453618288040161,1.329999566078186,-5.389997959136963,-3.9199984073638916,-5.685691310625508,70.77478627125896,0.04296875,10.540177692474705,0,,0
1672219719964,9.297466278076172,0.8334668278694153,3.0752053260803223,1.81999933719635,-1.609999418258667,2.2399990558624268,-4.864708521625859,71.69798732758012,0.02001953125,9.828246737983081,0,,0
1672219720069,9.129815101623535,1.1136841773986816,2.833308219909668,4.969998359680176,-18.689992904663086,-1.609999418258667,-6.645121973317841,72.75901393809797,0.00537109375,9.624003933178178,0,,0
1672219720174,9.053174018859863,1.2094849348068237,2.2585034370422363,2.3099992275238037,-17.709993362426758,-0.48999980092048645,-7.385788559095389,75.99229231750947,0.0078125,9.408700834781362,0,,0
1672219720280,8.952583312988281,1.1663745641708374,1.231040120124817,4.759998321533203,-19.669992446899414,-1.1899995803833008,-7.3544536973958845,82.17054725089966,0.02880859375,9.111785630560997,0,,0
1672219720386,7.929910182952881,1.003513216972351,1.4418017864227295,0.13999994099140167,-18.54999351501465,-0.34999987483024597,-7.097182018919118,79.69515407707584,0.03076171875,8.12214914155544,0,,0
1672219720491,7.992180347442627,0.7999365329742432,1.2382251024246216,4.689998149871826,-14.489995002746582,1.1199995279312134,-5.6487447193929174,81.19320755115125,0.013916015625,8.126994928453534,0,,0
1672219720597,8.346643447875977,0.7999365329742432,1.5998730659484863,4.199998378753662,-16.449993133544922,-1.1199995279312134,-5.377167438163106,79.14923506507304,-7.32421875E-4,8.536155406850629,0,,0
1672219720702,10.432705879211426,1.2717554569244385,1.4130616188049316,5.17999792098999,0.48999980092048645,0.8399997353553772,-6.887831759260285,82.28649320292665,0.01611328125,10.604501734777045,0,,0
1672219720807,10.303374290466309,1.2502002716064453,1.2645703554153442,0.0,-5.669997692108154,-0.909999668598175,-6.8673542435491814,83.00287584296066,0.021240234375,10.455699913079096,0,,0
1672219720914,9.886641502380371,1.183139681816101,1.243015170097351,-0.13999994099140167,-2.169999122619629,-0.27999988198280334,-6.771356223133506,82.83398908958965,0.01904296875,10.034469912076574,0,,0
1672219721022,10.329719543457031,1.3052856922149658,1.1543995141983032,-0.4199998676776886,1.1899995803833008,1.9599992036819458,-7.157756580949998,83.6233593684883,0.002685546875,10.475662977738475,0,,0
1672219721126,10.207573890686035,1.2262500524520874,1.2502002716064453,-0.8399997353553772,-5.45999813079834,0.0,-6.799863847344017,83.01732089718917,-0.011474609375,10.35670095368592,0,,0
1672219721230,10.003996849060059,1.1448193788528442,1.2166699171066284,0.4199998676776886,2.3799991607666016,1.609999418258667,-6.480969194955097,83.06583406645065,-0.027587890625,10.142526808118026,0,,0
1672219721336,10.171648025512695,1.221459984779358,1.13763427734375,-0.909999668598175,0.8399997353553772,-0.4199998676776886,-6.805529987538734,83.61835195113292,-0.0244140625,10.3076961440625,0,,0
1672219721446,10.032736778259277,1.2286450862884521,1.2478052377700806,0.0,0.13999994099140167,-0.27999988198280334,-6.92902185457329,82.91033762132449,-0.002197265625,10.184419174469575,0,,0
1672219721553,10.047107696533203,1.1807446479797363,1.1448193788528442,-0.9799996018409729,0.7699997425079346,1.0499995946884155,-6.65999950553201,83.49945935967848,0.003662109375,10.180822285044885,0,,0
1672219721660,10.123747825622559,1.147214412689209,1.3340259790420532,0.8399997353553772,3.849998712539673,2.099999189376831,-6.4101832599559065,82.49327275674469,0.002197265625,10.275504671705349,0,,0
1672219721766,10.209968566894531,1.0801538228988647,0.9843530654907227,1.6799994707107544,-3.779998779296875,2.4499990940093994,-6.011420093804103,84.49307823187328,-0.012451171875,10.314026438575693,0,,0
1672219721872,9.831555366516113,0.9412426948547363,1.5831079483032227,-2.72999906539917,-16.79999351501465,-0.909999668598175,-5.399519926744403,80.85257378001349,-0.011962890625,10.002582142200584,0,,0
1672219721978,10.449470520019531,1.2478052377700806,1.0154882669448853,2.4499990940093994,10.00999641418457,1.2599996328353882,-6.777998335080191,84.44937820083017,0.00537109375,10.572590433780476,0,,0
1672219722084,9.297466278076172,1.1903247833251953,0.7089257836341858,-0.8399997353553772,-24.779991149902344,3.709998607635498,-7.274816734849826,85.63967121199816,0.017822265625,9.400123831549406,0,,0
1672219722190,9.707015037536621,0.8047266006469727,0.8813672065734863,-7.769996643066406,0.4199998676776886,6.859997272491455,-4.719745316265145,84.81194468122162,0.025634765625,9.780109099267456,0,,0
1672219722297,7.8388991355896,0.5676196813583374,1.0298584699630737,-8.259997367858887,20.579992294311523,2.5199992656707764,-4.106430508883636,82.51546326724305,0.009033203125,7.926609630148781,0,,0
1672219722403,7.874824523925781,1.0083032846450806,0.8933423161506653,-1.81999933719635,26.179990768432617,1.329999566078186,-7.250522435433621,83.52787439263335,-0.008056640625,7.98921756433472,0,,0
1672219722506,8.746611595153809,0.9364526867866516,1.0753638744354248,-0.6999997496604919,14.489995002746582,-1.81999933719635,-6.065743981797728,82.99086873786763,-0.039794921875,8.86208584327131,0,,0
1672219722612,9.692644119262695,1.0466235876083374,2.222578287124634,-3.779998779296875,9.379996299743652,-4.4799981117248535,-6.008237869554205,77.08502454875553,-0.038330078125,9.999131222221944,1,,0
1672219722727,10.09500789642334,1.0322535037994385,2.4405250549316406,-3.779998779296875,13.3699951171875,-2.659999132156372,-5.676021768329371,76.40919269155319,-0.0166015625,10.436996419885602,1,,0
1672219722833,10.310559272766113,1.0969189405441284,2.3590943813323975,-3.149998903274536,7.1399970054626465,-1.329999566078186,-5.9208603936890185,77.1123503276717,-0.007080078125,10.633728884045418,1,,0
1672219722938,10.396780014038086,1.183139681816101,2.553090810775757,-2.5199992656707764,0.7699997425079346,-0.8399997353553772,-6.306466677618016,76.2031356560658,-0.021240234375,10.770846153160731,1,,0
1672219723044,10.195598602294922,1.3172607421875,2.6393115520477295,-1.7499994039535522,7.839996814727783,-0.8399997353553772,-7.12930837261399,75.48656665238973,-0.00146484375,10.613735072574551,1,,0
1672219723150,10.70334243774414,1.1759546995162964,2.56506609916687,-0.5599997639656067,5.17999792098999,-1.329999566078186,-6.098500129527233,76.52317861283898,-0.004150390625,11.069054742299556,1,,0
1672219723257,10.391990661621094,1.2861255407333374,3.123105525970459,-3.0799989700317383,0.34999987483024597,-2.9399991035461426,-6.759416473706279,73.27289760485768,-0.010498046875,10.927093709861458,1,,0
1672219723362,9.807605743408203,1.1208691596984863,2.6369166374206543,0.13999994099140167,7.069997310638428,1.8899993896484375,-6.298029807669819,74.95108311703156,0.012939453125,10.217573461639638,1,,0
1672219723467,9.42200756072998,1.0585986375808716,2.751877546310425,0.48999980092048645,-0.06999997049570084,-3.6399986743927,-6.155443895340659,73.71854611312021,0.005859375,9.87257249048233,1,,0
1672219723573,9.881851196289062,1.1903247833251953,2.874023675918579,-2.72999906539917,9.869996070861816,1.5399994850158691,-6.597692375444292,73.78353064959938,0.016845703125,10.359916420760271,1,,0
1672219723679,13.287569046020508,1.5280225276947021,3.7649707794189453,0.909999668598175,-0.2099999338388443,4.689998149871826,-6.313569658679557,74.18016928849106,0.009521484375,13.894939689245987,1,,0
1672219723786,13.670771598815918,1.5352076292037964,4.358935832977295,-0.2099999338388443,-1.7499994039535522,-0.2099999338388443,-6.106928083338048,72.31507890331888,0.00634765625,14.43077198793505,1,,0
1672219723894,11.167976379394531,1.2142750024795532,3.271596908569336,-0.27999988198280334,2.3099992275238037,-2.8699989318847656,-5.956871719139042,73.672345775614,0.023193359375,11.700491721484244,1,,0
1672219724001,10.530900955200195,1.2861255407333374,3.214116334915161,0.7699997425079346,1.5399994850158691,0.5599997639656067,-6.662489579739838,73.0273860269599,0.03564453125,11.085329839437863,1,,0
1672219724107,10.35845947265625,1.3819262981414795,2.763852596282959,3.4999988079071045,6.649997711181641,3.4299986362457275,-7.344973348555386,75.06033754746151,0.0224609375,10.809545971692662,0,,0
1672219724221,10.025551795959473,1.0969189405441284,3.0799951553344727,-1.1199995279312134,-4.619998455047607,-5.809998035430908,-5.970745785960519,72.92228172427112,0.029296875,10.545202232886503,0,,0
1672219724326,9.56570816040039,1.1687695980072021,3.024909734725952,1.0499995946884155,-3.4299986362457275,-1.4699995517730713,-6.644851250885454,72.45177800165123,0.05810546875,10.100439291754412,0,,0
1672219724431,9.752519607543945,1.2166699171066284,2.572251081466675,6.999997615814209,-11.059995651245117,5.249998092651367,-6.878306775639795,75.2245819457981,0.039794921875,10.159153508478344,0,,0
1672219724538,9.022039413452148,1.2286450862884521,2.665656805038452,2.7999989986419678,-9.939996719360352,0.34999987483024597,-7.440791375273138,73.53966840374852,0.05615234375,9.4874912452235,0,,0
1672219724646,9.036409378051758,0.9795630574226379,2.133962392807007,3.289998769760132,-4.969998359680176,1.1199995279312134,-6.022425346606651,76.71293711997293,0.05126953125,9.336489368339876,0,,0
1672219724751,8.52387523651123,0.9939331412315369,2.2608985900878906,2.8699989318847656,-13.3699951171875,0.5599997639656067,-6.430579299119782,75.14476231174818,0.07080078125,8.87445855089251,0,,0
1672219724855,8.40412425994873,1.101709008216858,1.710044026374817,2.5199992656707764,-19.599992752075195,-1.3999994993209839,-7.320078471930376,78.49865397809306,0.06201171875,8.646809694192719,0,,0
1672219724965,8.36819839477539,0.8909472823143005,1.9088306427001953,3.219998836517334,-6.019997596740723,3.6399986743927,-5.926190462828452,77.15038071558153,0.06494140625,8.62926218495509,0,,0
1672219725073,8.959768295288086,1.0250684022903442,1.4370118379592896,-0.7699997425079346,-0.6299998164176941,5.879998207092285,-6.445051451489898,80.88821994196121,0.058837890625,9.131988620068402,0,,0
1672219725183,9.963281631469727,1.01788330078125,1.5399975776672363,2.4499990940093994,-10.91999626159668,1.7499994039535522,-5.765302670858497,81.21347871766083,0.05859375,10.132850527922157,0,,0
1672219725290,10.317744255065918,1.0945240259170532,1.401086449623108,3.359998941421509,-16.449993133544922,2.7999989986419678,-6.000721509421916,82.26688561758591,0.037353515625,10.469807667554019,0,,0
1672219725397,9.838740348815918,0.9843530654907227,1.101709008216858,2.099999189376831,-9.589996337890625,-0.27999988198280334,-5.678101893979614,83.61082708034763,0.03369140625,9.949046454195775,0,,0
1672219725503,10.205178260803223,1.0202783346176147,1.1304492950439453,0.0,5.17999792098999,-1.1199995279312134,-5.674780530092389,83.67899460427341,0.05859375,10.318165865284689,0,,0
1672219725610,10.34408950805664,1.3196557760238647,1.101709008216858,1.1199995279312134,6.439997673034668,-1.2599996328353882,-7.2298294416353,83.92056632942341,0.045654296875,10.485964040405001,0,,0
1672219725716,9.968071937561035,1.087338924407959,1.1280542612075806,-4.129998683929443,-3.9199984073638916,-1.2599996328353882,-6.186157199333052,83.5434919028266,0.032470703125,10.090454425106584,0,,0
1672219725822,10.626702308654785,1.1879297494888306,1.2861255407333374,1.2599996328353882,3.219998836517334,-0.9799996018409729,-6.332624834732248,83.09918569044729,0.060791015625,10.769962764699613,0,,0
1672219725927,10.684182167053223,0.9436377286911011,1.5184423923492432,-0.7699997425079346,4.269998550415039,5.739997863769531,-4.99736545280768,81.91125871400814,0.064208984375,10.832722097454116,0,,0
1672219726034,9.680669784545898,0.8382568955421448,1.1064990758895874,4.409998416900635,-16.169994354248047,2.3099992275238037,-4.917085945830298,83.47939903617976,0.052734375,9.779692342057004,0,,0
1672219726141,8.054450988769531,0.8143066763877869,0.8909472823143005,-1.2599996328353882,-12.669995307922363,0.2099999338388443,-5.738235997178796,83.68785888331993,0.052734375,8.14438844564547,0,,0
1672219726247,7.99936580657959,0.77598637342453,1.1280542612075806,-6.159997940063477,20.08999252319336,0.8399997353553772,-5.486747233247581,81.97319399469959,0.040771484375,8.115695569416332,0,,0
1672219726352,8.631650924682617,0.5676196813583374,1.1280542612075806,-4.129998683929443,25.89999008178711,-2.589998960494995,-3.730735026594052,82.55432005092332,0.046875,8.72353690910219,1,,0
1672219726467,10.286609649658203,1.1064990758895874,1.4944922924041748,-1.329999566078186,-9.589996337890625,-0.13999994099140167,-6.076216436933576,81.73360841663123,0.04296875,10.453333702768761,1,,0
1672219726572,10.087822914123535,0.6897656321525574,1.8345850706100464,-2.3099992275238037,-3.0099987983703613,-3.359998941421509,-3.8486396159992315,79.69275956028262,0.030029296875,10.276460974251785,1,,0
1672219726677,10.174043655395508,1.123264193534851,1.7268091440200806,-4.059998512268066,16.58999252319336,-2.589998960494995,-6.2120869490925585,80.36716203881667,0.034912109375,10.380498859411452,1,,0
1672219726784,9.707015037536621,1.0945240259170532,1.9447559118270874,-2.169999122619629,9.869996070861816,-5.739997863769531,-6.308941342728291,78.67103949559497,0.034423828125,9.960230887828764,1,,0
1672219726891,9.9393310546875,1.1208691596984863,2.193837881088257,-2.099999189376831,12.45999526977539,-0.4199998676776886,-6.284121513608844,77.55308109168057,0.049560546875,10.240096392922107,1,,0
1672219726997,10.265053749084473,1.2933106422424316,2.33514404296875,-0.9799996018409729,6.509997367858887,1.3999994993209839,-7.003858718284918,77.18417865663045,0.03125,10.606454572115187,1,,0
1672219727106,10.33450984954834,1.1591894626617432,2.3399341106414795,-1.5399994850158691,1.6799994707107544,-3.4999988079071045,-6.243200841967694,77.24223014340694,0.02294921875,10.659320132302117,1,,0
1672219727215,10.272239685058594,1.3579760789871216,2.521955728530884,-0.4199998676776886,3.149998903274536,-1.5399994850158691,-7.3159521860328764,76.20604091412702,0.04443359375,10.664111208866103,1,,0
1672219727323,10.530900955200195,1.401086449623108,2.603386402130127,-0.48999980092048645,1.4699995517730713,-0.4199998676776886,-7.359414009527526,76.11408979828401,0.02685546875,10.938031766563395,1,,0
1672219727430,9.812395095825195,1.3388159275054932,2.38543963432312,0.6299998164176941,-3.149998903274536,-2.029999256134033,-7.55221937741162,76.3361862275864,0.001708984375,10.186552304549187,1,,0
1672219727538,9.13700008392334,1.1903247833251953,2.442919969558716,1.2599996328353882,5.739997863769531,0.34999987483024597,-7.173220146336378,75.03119944663729,-0.021484375,9.532549585555905,1,,0
1672219727644,12.360696792602539,1.506467342376709,3.4895436763763428,4.4799981117248535,9.589996337890625,12.10999584197998,-6.689725804788383,74.23511615156721,0.016357421875,12.931867000616746,1,,0
1672219727750,13.87674331665039,1.9878662824630737,3.4584083557128906,-0.2099999338388443,-8.679996490478516,-0.27999988198280334,-7.913401105108968,76.00564585056816,0.025634765625,14.438705128508566,0,,0
1672219727862,11.256592750549316,1.4178515672683716,3.063230037689209,-0.5599997639656067,8.329997062683105,-0.7699997425079346,-6.929608257868416,74.77686406464059,0.020263671875,11.75178972251998,0,,0
1672219727966,10.073452949523926,1.1903247833251953,2.6369166374206543,0.7699997425079346,4.409998416900635,-1.0499995946884155,-6.521338452735173,75.33089214356188,0.029541015625,10.480680167278091,0,,0
1672219728071,10.542876243591309,1.3340259790420532,2.773432731628418,-0.2099999338388443,0.0,3.359998941421509,-6.9766052057726196,75.26156255866975,0.04736328125,10.982886411017322,0,,0
1672219728177,10.5285062789917,1.2286450862884521,2.723137378692627,-1.4699995517730713,-1.5399994850158691,-0.8399997353553772,-6.445897967909749,75.49856922708142,0.04296875,10.944153251762392,0,,0
1672219728284,9.814790725708008,1.1759546995162964,2.883603572845459,-1.4699995517730713,2.9399991035461426,-2.169999122619629,-6.557695002956907,73.62711495571433,0.0185546875,10.29699742692429,0,,0
1672219728390,9.707015037536621,0.9843530654907227,2.68481707572937,0.4199998676776886,-1.2599996328353882,2.099999189376831,-5.582179018291295,74.53934149054575,0.0302734375,10.119453277061517,0,,0
1672219728497,9.9393310546875,1.350791096687317,2.665656805038452,2.589998960494995,-6.229997634887695,1.8899993896484375,-7.478165171714028,74.98697936763004,0.03955078125,10.378856613510607,0,,0
1672219728606,9.733359336853027,1.1136841773986816,2.845283269882202,1.81999933719635,-1.9599992036819458,-2.2399990558624268,-6.2672860538752575,73.70515291128642,0.06640625,10.201676985337446,0,,0
1672219728713,9.292675971984863,0.7448511123657227,2.076482057571411,-0.5599997639656067,5.529997825622559,0.5599997639656067,-4.472880697852848,77.40397638920005,0.0546875,9.550937526510854,0,,0
1672219728819,9.055569648742676,1.161584496498108,1.6765137910842896,1.2599996328353882,-24.149991989135742,-3.4999988079071045,-7.188731643111701,79.51123645890388,0.056396484375,9.282419872933465,0,,0
1672219728925,7.905959606170654,0.8454419374465942,1.9902613162994385,0.909999668598175,-19.039993286132812,-4.829998016357422,-5.920511254323332,75.86986230141517,0.058349609375,8.196347324946245,0,,0
1672219729031,7.237749099731445,0.9747729897499084,1.3819262981414795,4.199998378753662,1.8899993896484375,-3.4999988079071045,-7.535860151858454,79.190438659711,0.0810546875,7.432692291875424,0,,0
1672219729137,8.65799617767334,1.0011181831359863,2.3519093990325928,2.4499990940093994,0.6999997496604919,12.039995193481445,-6.367042463061155,74.80256443513272,0.07666015625,9.027436693240752,0,,0
1672219729243,11.467353820800781,1.401086449623108,1.9064356088638306,-0.34999987483024597,-11.26999568939209,0.8399997353553772,-6.872493050003003,80.56096563978214,0.05517578125,11.708874566818782,0,,0
1672219729348,9.757309913635254,1.1879297494888306,1.626218318939209,-1.6799994707107544,-15.81999397277832,-2.029999256134033,-6.847922424023048,80.53767788400211,0.05029296875,9.96297444849172,0,,0
1672219729457,10.003996849060059,1.0538086891174316,1.5926880836486816,0.0,12.949995040893555,6.789997577667236,-5.939039850807615,80.95413197900473,0.04638671875,10.184651247885688,0,,0
1672219729564,10.341694831848145,1.2502002716064453,1.4489868879318237,-0.48999980092048645,-1.1199995279312134,-2.2399990558624268,-6.826951862630371,82.0241430728053,0.037353515625,10.517281764581465,0,,0
1672219729669,9.783655166625977,1.0897339582443237,1.5974781513214111,0.909999668598175,-9.029996871948242,-4.5499982833862305,-6.273188145957218,80.72656153247739,0.04736328125,9.972931613279382,0,,0
1672219729774,9.848320960998535,1.1759546995162964,1.386716365814209,3.4299986362457275,-2.3799991607666016,-0.7699997425079346,-6.74335579138524,81.98502399204342,0.033203125,10.014752991730477,0,,0
1672219729880,11.476934432983398,1.3651611804962158,1.5280225276947021,2.4499990940093994,-1.1199995279312134,3.9899983406066895,-6.724573094785786,82.41632174613548,0.027587890625,11.658410778183976,0,,0
1672219729999,10.114168167114258,1.37713623046875,1.2286450862884521,-0.7699997425079346,-17.919992446899414,-1.1199995279312134,-7.697758387722992,83.07378170474271,0.003662109375,10.281170685189398,0,,0
1672219730106,8.174201965332031,0.790356457233429,1.0466235876083374,1.1199995279312134,4.969998359680176,4.619998455047607,-5.478263488654006,82.70355740665845,0.017333984375,8.278747612632406,0,,0
1672219730213,8.646020889282227,0.8717871308326721,1.2046948671340942,-8.329997062683105,17.079994201660156,2.2399990558624268,-5.703006545594251,82.06775230922653,-0.012451171875,8.772968696073713,0,,0
1672219730318,8.2628173828125,0.728085994720459,1.5567628145217896,-6.999997615814209,15.189993858337402,-2.169999122619629,-4.949038274862526,79.33021648787023,-0.002685546875,8.43965465988356,0,,0
1672219730423,8.715476036071777,0.8406518697738647,1.446591854095459,-0.7699997425079346,2.4499990940093994,1.0499995946884155,-5.435515916305944,80.57598020339519,0.007568359375,8.87461808157574,1,,0
1672219730531,9.829160690307617,1.1687695980072021,1.8681153059005737,-0.06999997049570084,-5.739997863769531,-1.9599992036819458,-6.662936811122898,79.23879931842525,0.010009765625,10.073146332961436,1,,0
1672219730640,10.245894432067871,1.2190649509429932,1.9327808618545532,-1.8899993896484375,4.199998378753662,-0.06999997049570084,-6.668673312182764,79.31728418175936,0.01025390625,10.497624203963879,1,,0
1672219730748,10.396780014038086,1.2957056760787964,2.136357545852661,-3.4299986362457275,9.449995994567871,-1.1899995803833008,-6.959952288567306,78.38833977875817,-0.018798828125,10.69279717487647,1,,0
1672219730853,10.255474090576172,1.123264193534851,2.4596850872039795,-2.72999906539917,6.159997940063477,-1.3999994993209839,-6.079523645246923,76.51287081325638,-0.011474609375,10.605966339715128,1,,0
1672219730961,10.21475887298584,1.1687695980072021,2.555485963821411,-2.589998960494995,5.739997863769531,-0.8399997353553772,-6.333836050363006,75.95427432713083,-0.00537109375,10.594235683510025,1,,0
1672219731066,9.946516990661621,1.2502002716064453,2.45489501953125,-0.6999997496604919,-5.669997692108154,-2.2399990558624268,-6.957431521473549,76.13593374162778,-0.002197265625,10.32098398998683,1,,0
1672219731171,10.219549179077148,1.1663745641708374,2.323168992996216,-1.0499995946884155,2.5199992656707764,-1.9599992036819458,-6.350445956117373,77.19283296961528,-0.00390625,10.544985975217804,1,,0
1672219731280,10.09500789642334,1.2502002716064453,2.7710378170013428,-3.5699985027313232,11.479995727539062,-2.099999189376831,-6.810342986753678,74.65060684052308,-0.008056640625,10.542809669686065,1,,0
1672219731388,10.205178260803223,1.3531861305236816,2.9698243141174316,-1.2599996328353882,2.3799991607666016,1.2599996328353882,-7.255660873868344,73.77439633116138,0.01904296875,10.71431904020668,1,,0
1672219731496,9.687854766845703,1.183139681816101,2.821333169937134,0.8399997353553772,4.619998455047607,-0.34999987483024597,-6.6876782130181995,73.76318706340726,0.030029296875,10.159442422986137,1,,0
1672219731604,10.250683784484863,1.231040120124817,2.663261890411377,-0.5599997639656067,-0.34999987483024597,0.48999980092048645,-6.629991963766077,75.43581507619594,0.02490234375,10.662314088591437,1,,0
1672219731709,13.543835639953613,1.760339379310608,3.4775686264038086,0.8399997353553772,-6.019997596740723,2.029999256134033,-7.175213323251575,75.59959256668188,0.0263671875,14.09353618237018,1,,0
1672219731815,12.121194839477539,1.4441968202590942,3.472778558731079,0.9799996018409729,4.969998359680176,0.6999997496604919,-6.534080137229977,74.01274664503502,0.01513671875,12.691306461913435,1,,0
1672219731921,10.363249778747559,1.4657520055770874,3.0464649200439453,1.9599992036819458,3.4999988079071045,3.219998836517334,-7.727593481335859,73.61834591566716,0.03759765625,10.900748755366438,0,,0
1672219732025,10.310559272766113,1.3843213319778442,2.953059196472168,0.7699997425079346,-2.589998960494995,0.5599997639656067,-7.354664778731925,74.01769668947676,0.030517578125,10.814089729850638,0,,0
1672219732131,10.835068702697754,1.4082715511322021,3.10394549369812,3.359998941421509,0.6299998164176941,0.9799996018409729,-7.122058330003124,74.01446663683393,0.03466796875,11.358539526794699,0,,0
1672219732247,10.815908432006836,1.506467342376709,2.905158758163452,1.329999566078186,4.129998683929443,3.9899983406066895,-7.661137328650313,74.96518665363732,0.0498046875,11.300144533294162,0,,0
1672219732354,10.233919143676758,1.3244458436965942,2.6896071434020996,-1.2599996328353882,3.149998903274536,-0.8399997353553772,-7.1344238682521794,75.27491917887062,0.047607421875,10.664016336167082,0,,0
1672219732461,9.996811866760254,1.362766146659851,2.4405250549316406,1.2599996328353882,-3.0799989700317383,-0.9799996018409729,-7.543827870451189,76.2807152714668,0.04541015625,10.38024766629534,0,,0
1672219732567,9.594449043273926,1.2502002716064453,2.543510913848877,1.2599996328353882,-13.229995727539062,0.8399997353553772,-7.178813418355051,75.1522941523455,0.03662109375,10.004294124623343,0,,0
1672219732671,9.18250560760498,1.0921289920806885,2.3710694313049316,0.48999980092048645,-8.46999740600586,0.4199998676776886,-6.569167776511433,75.521571384831,0.02978515625,9.546367121429428,0,,0
1672219732778,9.225615501403809,1.243015170097351,1.9303858280181885,-0.7699997425079346,-7.489997386932373,0.6299998164176941,-7.512764558604807,78.18182557241855,0.049072265625,9.507021486135805,0,,0
1672219732883,8.543035507202148,0.8669971227645874,2.1507277488708496,0.5599997639656067,-4.409998416900635,0.7699997425079346,-5.6206654228806405,75.86930896943554,0.06787109375,8.852161856742217,0,,0
1672219732989,7.386240482330322,1.4418017864227295,3.76257586479187,-20.369993209838867,17.219993591308594,3.709998607635498,-9.866971496721094,63.00555289903559,0.10205078125,8.413817088127203,0,,0
1672219733095,7.975415229797363,1.2621753215789795,1.0801538228988647,62.78997802734375,-6.649997711181641,-2.659999132156372,-8.912898958993784,82.28705175878949,0.14208984375,8.146598487173021,0,,0
1672219733202,9.666298866271973,2.083667039871216,1.101709008216858,-7.769996643066406,10.00999641418457,24.569990158081055,-12.088603415683423,83.49781538006441,0.189453125,9.949510784150277,0,,0
1672219733309,12.434942245483398,2.0525317192077637,1.7363892793655396,-0.8399997353553772,-26.599990844726562,-9.869996070861816,-9.28433367297357,82.05073843139283,0.2578125,12.722253056607435,0,,0
1672219733416,9.819580078125,2.373464345932007,1.79147469997406,-151.33995056152344,-59.35997772216797,-1.6799994707107544,-13.37554092256997,79.66072351083469,0.29638671875,10.259964303678984,0,,0
1672219733521,9.697434425354004,0.2251318395137787,0.8143066763877869,-18.199993133544922,2.4499990940093994,20.92999267578125,-1.3252550547824602,85.20005667924258,0.34521484375,9.73416735742783,0,,0
1672219733627,11.1272611618042,-3.1183154582977295,-1.422641634941101,200.4799346923828,27.299989700317383,-13.299995422363281,15.53477847068433,97.28584832275197,0.385009765625,11.643184335993423,0,,0
1672219733736,10.123747825622559,1.760339379310608,3.501518726348877,105.8399658203125,13.089995384216309,-32.12998962402344,-9.33204184150364,70.92094103843215,0.45556640625,10.855860083757573,0,,0
1672219733843,10.056687355041504,2.1674928665161133,3.7362306118011475,-138.03994750976562,-20.71999168395996,0.9799996018409729,-11.422006871239384,69.61911117137014,0.455322265625,10.94506304541047,0,,0
1672219733948,8.265213012695312,0.1748364269733429,4.169729232788086,-44.16998291015625,-14.349995613098145,6.649997711181641,-1.0819608197253667,63.229446433786734,0.40771484375,9.259101241275648,0,,0
1672219734056,9.829160690307617,0.22273682057857513,3.1949563026428223,-11.129995346069336,-20.99999237060547,1.2599996328353882,-1.2345845701905644,71.99331267833463,0.271240234375,10.337782999411772,0,,0
1672219734164,10.70334243774414,0.907712459564209,1.91122567653656,-9.449995994567871,6.019997596740723,0.2099999338388443,-4.772323972178687,79.87577184089675,0.09521484375,10.910465839528367,0,,0
1672219734272,9.455537796020508,1.5280225276947021,2.007026433944702,0.909999668598175,18.689992904663086,0.34999987483024597,-8.98292638943779,78.01629319273528,0.032470703125,9.786225164161493,0,,0
1672219734378,9.637558937072754,1.482517123222351,1.6549586057662964,-3.4299986362457275,4.199998378753662,1.8899993896484375,-8.620848209847685,80.256218807896,0.004638671875,9.890363353941973,0,,0
1672219734485,10.253079414367676,1.221459984779358,1.7339942455291748,6.649997711181641,-3.4299986362457275,-3.6399986743927,-6.699439164379713,80.40100151596711,-0.009765625,10.47016418282329,0,,0
1672219734593,9.912985801696777,0.9412426948547363,1.6310083866119385,5.669997692108154,2.4499990940093994,-2.72999906539917,-5.352462247550711,80.6566925312605,-0.021484375,10.090263310363005,0,,0
1672219734698,9.98962688446045,1.1687695980072021,1.7794995307922363,-5.039998531341553,-5.879998207092285,-2.72999906539917,-6.57066153262968,79.89957780626315,-0.06298828125,10.213975046183082,0,,0
1672219734804,10.676997184753418,1.1136841773986816,1.5687378644943237,-4.059998512268066,-3.779998779296875,0.6299998164176941,-5.892004756169872,81.64151399045292,-0.06494140625,10.848940031990168,0,,0
1672219734908,10.011181831359863,0.387993186712265,1.7363892793655396,-9.379996299743652,-10.219995498657227,5.669997692108154,-2.1868262656469986,80.16022568594565,-0.089111328125,10.168055276353515,0,,0
1672219735013,7.630532741546631,0.8981323838233948,1.0083032846450806,-0.7699997425079346,16.169994354248047,9.589996337890625,-6.655636772322132,82.47251127640024,-0.08935546875,7.749086863141585,0,,0
1672219735120,8.998088836669922,0.7855664491653442,1.7196240425109863,-6.929997444152832,15.749994277954102,2.589998960494995,-4.901225436669872,79.1806675000377,-0.091064453125,9.194554051515492,0,,0
1672219735225,7.802973747253418,0.40715333819389343,1.31247079372406,-8.609996795654297,13.859994888305664,-2.029999256134033,-2.9456385730794414,80.45214432760784,-0.061279296875,7.923051983011796,0,,0
1672219735333,9.230405807495117,0.7568262219429016,1.5280225276947021,2.8699989318847656,-3.289998769760132,0.4199998676776886,-4.624691185658467,80.60037011457862,-0.0947265625,9.386587779720726,1,,0
1672219735440,9.54175853729248,0.47181886434555054,3.094365358352661,-6.859997272491455,2.659999132156372,-1.8899993896484375,-2.692993215206514,72.03226773652723,-0.083251953125,10.042054869184854,1,,0
1672219735547,10.257868766784668,1.0609936714172363,2.6680519580841064,-1.4699995517730713,21.699993133544922,-0.9799996018409729,-5.71635641161877,75.42052034099618,-0.0888671875,10.652139712677462,1,,0
1672219735654,10.38001537322998,0.8574170470237732,2.6512868404388428,-1.329999566078186,15.889994621276855,-0.06999997049570084,-4.575812385834802,75.67173471814965,-0.08447265625,10.747520879314536,1,,0
1672219735759,10.521321296691895,0.9053174257278442,3.293152093887329,-3.359998941421509,3.0799989700317383,-0.9799996018409729,-4.694454056667371,72.61998651436957,-0.078369140625,11.061765328509885,1,,0
1672219735866,10.186018943786621,1.07296884059906,3.3386573791503906,1.1199995279312134,11.339995384216309,-3.0799989700317383,-5.716134745164485,71.85247978489407,-0.085205078125,10.77278409471905,1,,0
1672219735972,10.351274490356445,1.0106983184814453,3.3290772438049316,2.5199992656707764,1.9599992036819458,-3.359998941421509,-5.3104487737808785,72.17167065013962,-0.076904296875,10.920309059770476,1,,0
1672219736078,10.130932807922363,0.8933423161506653,3.120710611343384,2.169999122619629,10.779995918273926,0.4199998676776886,-4.817053336320976,72.87918779606824,-0.060791015625,10.638265590415307,1,,0
1672219736183,9.606423377990723,0.9053174257278442,3.082390308380127,1.81999933719635,10.35999584197998,0.6299998164176941,-5.127681550553133,72.21024586699026,-0.04833984375,10.129368182257416,1,,0
1672219736290,9.84113597869873,0.9005273580551147,3.444038152694702,3.219998836517334,-2.2399990558624268,-3.289998769760132,-4.9363920185444154,70.71181818917269,-0.039306640625,10.465194965745315,1,,0
1672219736397,13.706697463989258,1.3436059951782227,4.37091064453125,-0.27999988198280334,-20.92999267578125,-0.27999988198280334,-5.335487875726608,72.31310652545133,-0.04296875,14.44934919994963,1,,0
1672219736505,12.78940486907959,1.1543995141983032,4.382885932922363,1.609999418258667,1.2599996328353882,0.4199998676776886,-4.880496156850654,71.08358547394415,-0.035400390625,13.568758389942195,1,,0
1672219736610,10.494976043701172,1.1591894626617432,3.2476465702056885,1.8899993896484375,6.159997940063477,1.81999933719635,-6.023297108414463,72.80543659430447,-0.03759765625,11.046965674481672,0,,0
1672219736726,10.870994567871094,1.0609936714172363,3.063230037689209,1.3999994993209839,-1.7499994039535522,2.2399990558624268,-5.366637659669907,74.263219559072,-0.012451171875,11.34405609688491,0,,0
1672219736833,10.435100555419922,0.9627978801727295,3.3985328674316406,-0.7699997425079346,1.1199995279312134,2.9399991035461426,-5.013712940109382,71.96046097214355,-0.0224609375,11.016729506110396,0,,0
1672219736939,10.0495023727417,0.9891431331634521,3.3697926998138428,3.0099987983703613,2.659999132156372,2.5199992656707764,-5.331422728282402,71.46270051885139,-0.00537109375,10.645487537794788,0,,0
1672219737047,9.671089172363281,0.730480968952179,3.3650026321411133,0.4199998676776886,0.8399997353553772,-1.4699995517730713,-4.080426710426876,70.81493811334553,0.01708984375,10.265807856185514,0,,0
1672219737155,9.994417190551758,1.1208691596984863,2.883603572845459,2.72999906539917,-13.089995384216309,-0.6999997496604919,-6.150130722018336,73.90601568258872,0.030029296875,10.46230816872103,0,,0
1672219737263,9.249566078186035,0.8646020889282227,2.921923875808716,5.249998092651367,-12.529995918273926,0.7699997425079346,-5.093497857801169,72.46875257459718,0.030517578125,9.738565014566051,0,,0
1672219737368,8.964558601379395,0.8622070550918579,2.414179801940918,4.829998016357422,-13.789995193481445,0.48999980092048645,-5.305885140388545,74.92766941198938,0.0419921875,9.323892751394931,0,,0
1672219737473,8.835227012634277,0.9963281750679016,1.6453784704208374,-0.5599997639656067,-31.919986724853516,-2.659999132156372,-6.326073284522266,79.45069201120685,0.032470703125,9.04218870120177,0,,0
1672219737581,8.243657112121582,0.7041357755661011,1.815424919128418,4.199998378753662,-7.979996681213379,0.4199998676776886,-4.768383604154988,77.580514221691,-9.765625E-4,8.47050514489291,0,,0
1672219737688,7.77902364730835,0.787961483001709,1.386716365814209,3.849998712539673,-1.2599996328353882,-4.339998245239258,-5.694767581250124,79.89242440347843,-0.001708984375,7.940848473764861,0,,0
1672219737794,8.289162635803223,0.6490502953529358,1.4298267364501953,4.4799981117248535,-5.529997825622559,1.5399994850158691,-4.412288261576601,80.21315767660876,0.01708984375,8.436580348989855,0,,0
1672219737900,10.863808631896973,1.1520044803619385,1.745969295501709,-1.4699995517730713,-22.819992065429688,3.779998779296875,-5.9769254809681405,80.8698233474656,0.027099609375,11.06335668294609,0,,0
1672219738006,9.908196449279785,0.8933423161506653,1.755549430847168,-3.359998941421509,-10.779995918273926,-0.4199998676776886,-5.073371413976872,79.9525212228769,0.016845703125,10.102097365175897,0,,0
1672219738112,9.821975708007812,0.7592211961746216,1.5088623762130737,-1.8899993896484375,12.039995193481445,4.4799981117248535,-4.369021518229897,81.2664366659758,0.038818359375,9.966157198427474,0,,0
1672219738217,9.98483657836914,1.0011181831359863,1.2406201362609863,-1.3999994993209839,-8.259997367858887,-1.7499994039535522,-5.682156863537959,82.91727468785281,0.0,10.1112975149503,0,,0
1672219738323,10.025551795959473,0.8837622404098511,1.3795312643051147,0.2099999338388443,-0.5599997639656067,-2.169999122619629,-4.990871061919137,82.1652143737425,-0.013916015625,10.158534885515515,0,,0
1672219738429,9.802815437316895,0.907712459564209,1.2118799686431885,1.0499995946884155,10.91999626159668,0.5599997639656067,-5.250593160699385,82.95252671760738,0.004638671875,9.919061723053504,0,,0
1672219738536,10.233919143676758,1.1999047994613647,1.4849121570587158,3.219998836517334,-7.419997215270996,1.9599992036819458,-6.618590088585661,81.74416316230011,0.01220703125,10.41046764949898,0,,0
1672219738642,10.466236114501953,1.1136841773986816,1.3843213319778442,-2.029999256134033,-12.1799955368042,4.759998321533203,-6.021781445618357,82.46548211027903,0.0107421875,10.615966107786047,0,,0
1672219738747,8.947793006896973,0.4334985613822937,0.6753955483436584,-7.979996681213379,-11.339995384216309,8.679996490478516,-2.7658151945198584,85.68339689459879,0.0146484375,8.983711919007494,0,,0
1672219738852,8.255632400512695,0.6298901438713074,0.7520361542701721,-8.189996719360352,-13.999995231628418,0.5599997639656067,-4.345191434372886,84.79508037621031,0.01416015625,8.313710742085672,0,,0
1672219738959,8.47836971282959,0.847836971282959,1.123264193534851,-4.899998188018799,31.569988250732422,-0.13999994099140167,-5.6614485440122575,82.4530699035673,0.005615234375,8.594376240645849,0,,0
1672219739065,7.501201629638672,0.43589356541633606,0.9580078721046448,-8.119997024536133,27.089990615844727,-1.1199995279312134,-3.2989723308855226,82.7219312645485,-0.015869140625,7.574682050877099,0,,0
1672219739171,10.406360626220703,0.967587947845459,1.6525635719299316,-0.6999997496604919,-10.35999584197998,-3.149998903274536,-5.246741663428857,80.97659450430733,-0.022705078125,10.581093245928898,1,,0
1672219739277,10.324929237365723,0.9196875095367432,2.703977108001709,-3.5699985027313232,7.699997425079346,-1.81999933719635,-4.9249267529058045,75.32449509724127,-0.010498046875,10.712678519978311,1,,0
1672219739387,10.6578369140625,1.07296884059906,2.0716919898986816,0.6299998164176941,10.289996147155762,-1.1899995803833008,-5.643899134295363,78.99990500352523,-7.32421875E-4,10.910208866958511,1,,0
1672219739492,10.82309341430664,0.8310717940330505,2.5770411491394043,-0.06999997049570084,2.099999189376831,-0.909999668598175,-4.2719803794957345,76.60693048322892,9.765625E-4,11.156664934737568,1,,0
1672219739599,10.938055038452148,0.7328760027885437,2.725532293319702,-1.9599992036819458,12.949995040893555,-0.8399997353553772,-3.719816888673634,76.00804447561934,0.01123046875,11.29631274096111,1,,0
1672219739706,10.449470520019531,1.0250684022903442,2.3878345489501953,-0.06999997049570084,4.199998378753662,-3.0799989700317383,-5.462728273154241,77.12820772266448,0.0146484375,10.76772739306171,1,,0
1672219739817,10.339300155639648,1.0705738067626953,3.003354549407959,2.029999256134033,6.789997577667236,-1.7499994039535522,-5.678484901254981,73.80250323298989,0.0185546875,10.819768691316183,1,,0
1672219739925,10.05908203125,0.8813672065734863,2.715952157974243,1.81999933719635,-2.099999189376831,-0.4199998676776886,-4.8351381369673,74.89042491260464,0.02783203125,10.456497290615282,1,,0
1672219740031,9.623188972473145,0.7783814072608948,2.536325693130493,7.419997215270996,-1.9599992036819458,0.48999980092048645,-4.472283421841596,75.2346810113918,0.02685546875,9.982213764327634,1,,0
1672219740137,11.378738403320312,1.1567944288253784,2.8500733375549316,1.2599996328353882,-6.999997615814209,-1.8899993896484375,-5.632093245830508,75.93822148569136,0.02294921875,11.78714465132245,1,,0
1672219740243,14.135405540466309,1.5687378644943237,3.3290772438049316,-0.5599997639656067,-8.539997100830078,0.4199998676776886,-6.165406246600579,76.7475765675917,0.0185546875,14.606621223820506,1,,0
1672219740348,12.866044998168945,1.4849121570587158,3.8176612854003906,-1.9599992036819458,-2.589998960494995,-0.9799996018409729,-6.313816765305132,73.47312595109099,0.030029296875,13.502392961958035,1,,0
1672219740454,10.581196784973145,0.9604028463363647,3.2787818908691406,-2.7999989986419678,18.059993743896484,2.3799991607666016,-4.955046190303133,72.7834265317198,0.00634765625,11.119105616796183,1,,0
1672219740561,10.250683784484863,0.9412426948547363,2.9985644817352295,-1.5399994850158691,10.289996147155762,2.72999906539917,-5.0364198611011,73.69456904794083,0.001953125,10.721653082022492,1,,0
1672219740667,10.21475887298584,1.051413655281067,3.214116334915161,3.0799989700317383,-0.06999997049570084,3.149998903274536,-5.607613468873559,72.53360123260107,0.003173828125,10.759986678529064,0,,0
1672219740783,9.774075508117676,0.9148975014686584,3.0464649200439453,-0.06999997049570084,-8.46999740600586,-4.899998188018799,-5.106629565914976,72.68835490065452,0.037353515625,10.278644754326212,0,,0
1672219740888,9.96088695526123,1.0298584699630737,3.0153298377990723,4.5499982833862305,-3.359998941421509,-0.8399997353553772,-5.651338734106722,73.15804382279354,0.049560546875,10.458111274717314,0,,0
1672219740994,10.083032608032227,1.0897339582443237,2.33514404296875,4.339998245239258,-16.93999481201172,2.589998960494995,-6.010488251923569,76.96066415484997,0.0390625,10.407111240675984,0,,0
1672219741101,9.359736442565918,1.0585986375808716,1.97110116481781,4.409998416900635,-15.329994201660156,0.2099999338388443,-6.315438865982792,78.1076472554074,0.044921875,9.623436867966179,0,,0
1672219741207,8.9717435836792,0.7927514910697937,2.0621118545532227,1.81999933719635,-12.599995613098145,1.3999994993209839,-4.921912011270818,77.05566171408587,0.04443359375,9.239748002979908,0,,0
1672219741313,8.277188301086426,0.9340576529502869,1.4202466011047363,3.709998607635498,-12.8099946975708,0.8399997353553772,-6.346457284718367,80.26367966617435,0.05029296875,8.449935519199336,0,,0
1672219741421,7.424561023712158,0.8119116425514221,1.171164631843567,1.5399994850158691,-4.829998016357422,0.27999988198280334,-6.165139684478896,81.03591555126621,0.021728515625,7.56008819426186,0,,0
1672219741528,7.76465368270874,0.9340576529502869,1.1064990758895874,5.5999979972839355,0.7699997425079346,0.8399997353553772,-6.791535323011658,81.88969243981373,0.04345703125,7.898522058991917,0,,0
1672219741635,11.124866485595703,1.01788330078125,1.4058765172958374,0.34999987483024597,-9.729996681213379,0.48999980092048645,-5.186767186303283,82.79757164501474,0.0224609375,11.25945067568679,0,,0
1672219741743,10.066267967224121,1.0083032846450806,1.4657520055770874,-2.659999132156372,-7.629997253417969,-2.659999132156372,-5.66073893261553,81.71536991041378,0.01220703125,10.222272508774248,0,,0
1672219741850,9.740545272827148,0.9005273580551147,1.3795312643051147,-1.1899995803833008,3.849998712539673,2.3799991607666016,-5.230161787871142,81.9389412520866,0.005126953125,9.87888041449011,0,,0
1672219741955,10.202783584594727,1.1256592273712158,1.2837305068969727,2.589998960494995,1.609999418258667,2.9399991035461426,-6.247041829709292,82.82863871478916,0.01904296875,10.34465396156776,0,,0
1672219742060,10.130932807922363,0.9843530654907227,1.1855347156524658,-1.2599996328353882,-6.579997539520264,0.4199998676776886,-5.512236692514132,83.32553090658853,-0.001708984375,10.247450564808588,0,,0
1672219742167,9.968071937561035,1.0442285537719727,1.281335473060608,-0.4199998676776886,1.329999566078186,-2.099999189376831,-5.9318851671534025,82.67514149496644,0.0048828125,10.10419180436654,0,,0
1672219742274,9.922566413879395,0.9819580316543579,1.266965389251709,-0.06999997049570084,0.0,-3.709998607635498,-5.60648429826471,82.72354754049267,0.005615234375,10.051207246462468,0,,0
1672219742382,10.315349578857422,1.027463436126709,1.6142432689666748,4.199998378753662,8.889996528625488,2.659999132156372,-5.620246409921026,81.1059495363105,0.02392578125,10.491324958174516,0,,0
1672219742493,10.396780014038086,0.9532178044319153,1.3483960628509521,5.039998531341553,2.5199992656707764,6.649997711181641,-5.195188392610446,82.61035104191845,0.0205078125,10.527099827839562,0,,0
1672219742600,9.005273818969727,0.9125024676322937,0.9819580316543579,-4.269998550415039,-19.039993286132812,1.5399994850158691,-5.752154279321229,83.77690916164619,0.01708984375,9.104496629906956,0,,0
1672219742705,8.844807624816895,0.8693921566009521,0.7927514910697937,-9.309996604919434,-3.9199984073638916,3.849998712539673,-5.591530578762974,84.87832070649809,0.019775390625,8.922719292265766,0,,0
1672219742810,7.882009506225586,0.5843847990036011,1.1256592273712158,-13.3699951171875,15.539993286132812,-4.269998550415039,-4.1978045824168015,81.8723350248092,-0.023193359375,7.9834007882419975,0,,0
1672219742915,8.408913612365723,0.6610254049301147,0.9891431331634521,-5.669997692108154,17.779993057250977,-1.2599996328353882,-4.464129642290094,83.291109703145,-0.02099609375,8.492654877249928,0,,0
1672219743022,9.695039749145508,1.041833519935608,1.087338924407959,0.7699997425079346,1.81999933719635,3.149998903274536,-6.095567757370308,83.6007823074635,-0.029541015625,9.811295467842433,0,,0
1672219743127,10.20038890838623,0.7807763814926147,2.2273683547973633,-4.339998245239258,-1.6799994707107544,-0.7699997425079346,-4.27671492870143,77.68217817351905,-0.065673828125,10.469895674178337,1,,0
1672219743231,10.459051132202148,1.0226733684539795,1.9567310810089111,-0.06999997049570084,16.58999252319336,3.5699985027313232,-5.489907542506976,79.40331938920203,-0.058837890625,10.6895466661571,1,,0
1672219743336,10.221943855285645,1.0609936714172363,2.033371686935425,-1.8899993896484375,8.749996185302734,0.34999987483024597,-5.8127478813923545,78.7494574806859,-0.06494140625,10.476089163835423,1,,0
1672219743445,10.423125267028809,1.2118799686431885,2.2920336723327637,-0.6299998164176941,8.959996223449707,-1.5399994850158691,-6.478487487486148,77.5981074315017,-0.048095703125,10.740745399909645,1,,0
1672219743551,10.432705879211426,1.0609936714172363,2.5315358638763428,-0.6999997496604919,4.129998683929443,-4.689998149871826,-5.644258112286237,76.36058255518094,-0.03955078125,10.787758495767887,1,,0
1672219743657,10.212363243103027,1.0106983184814453,2.6273365020751953,-0.7699997425079346,-3.709998607635498,-2.72999906539917,-5.47490263816439,75.57238470269996,-0.023681640625,10.593241769883274,1,,0
1672219743764,10.324929237365723,0.8622070550918579,2.5914113521575928,2.5199992656707764,4.129998683929443,-0.06999997049570084,-4.630572986154429,75.91060546521015,-0.004150390625,10.680027039223775,1,,0
1672219743870,10.135723114013672,1.197509765625,2.4069948196411133,0.34999987483024597,0.6299998164176941,0.4199998676776886,-6.557401554725574,76.64106279154275,0.01220703125,10.486206976047031,1,,0
