timestamp,ax,ay,az,gx,gy,gz,pitch,roll,BAR,totacc,status,mov,prob
1672219936803,9.431587219238281,-0.5676196813583374,4.018843173980713,-1.7499994039535522,1.5399994850158691,0.48999980092048645,3.169007581477917,66.92092066763523,-0.002197265625,10.267820120834587,0,,0
1672219936909,9.534573554992676,-0.65863037109375,3.681145191192627,-3.779998779296875,-0.7699997425079346,0.7699997425079346,3.687156051169583,68.88922894881804,-0.024169921875,10.241714542005814,0,,0
1672219937017,9.402847290039062,-0.4933740496635437,4.150568962097168,0.48999980092048645,0.2099999338388443,0.2099999338388443,2.7482101694752488,66.18256075599464,9.765625E-4,10.290003781427911,0,,0
1672219937124,9.4507474899292,-0.4694238603115082,3.6380348205566406,-2.5199992656707764,-1.7499994039535522,-0.27999988198280334,2.6540256107280884,68.94595015325389,0.00537109375,10.137666606996671,0,,0
1672219937230,9.493857383728027,-0.6418652534484863,4.073928356170654,-1.609999418258667,0.5599997639656067,0.06999997049570084,3.555207225558345,66.77524714057789,0.00732421875,10.350952191820953,0,,0
1672219937337,9.364526748657227,-0.5221142768859863,3.8248462677001953,-1.81999933719635,-0.27999988198280334,-0.13999994099140167,2.9547083747640612,67.7829368674606,4.8828125E-4,10.128988770651539,0,,0
1672219937444,9.467513084411621,-0.6825805902481079,3.9565725326538086,-1.0499995946884155,1.1199995279312134,0.0,3.805810774812949,67.31944098323494,0.0029296875,10.283685451813435,0,,0
1672219937550,9.438772201538086,-0.6203100681304932,3.990102767944336,-1.2599996328353882,1.0499995946884155,-1.0499995946884155,3.4640468065371315,67.08450065598238,0.0166015625,10.266261508061698,0,,0
1672219937657,9.398056983947754,-0.5843847990036011,4.040398120880127,-1.2599996328353882,0.7699997425079346,-0.8399997353553772,3.269517884731847,66.73623857810429,0.014892578125,10.246452929772687,0,,0
1672219937761,9.340576171875,-0.5819897651672363,3.990102767944336,-0.8399997353553772,2.8699989318847656,-0.4199998676776886,3.2793847691091083,66.86881931782307,0.015380859375,10.173789628654383,0,,0
1672219937868,9.39087200164795,-0.59635990858078,4.05237340927124,-1.81999933719635,1.7499994039535522,-0.34999987483024597,3.336972328299273,66.65871119900626,0.021484375,10.24528439527505,0,,0
1672219937977,9.259145736694336,-0.5556445717811584,4.184099197387695,-0.13999994099140167,-1.0499995946884155,0.9799996018409729,3.130160233795828,65.6823483270685,0.033203125,10.17581479573381,0,,0
1672219938083,9.417217254638672,-0.6418652534484863,4.054768085479736,-0.2099999338388443,-7.90999698638916,0.8399997353553772,3.5821754783009534,66.70475480401359,0.028076171875,10.273125914329768,0,,0
1672219938190,9.388477325439453,-0.5556445717811584,4.016448020935059,0.6299998164176941,-6.999997615814209,0.34999987483024597,3.1145892719855026,66.83846481650428,0.041015625,10.226636890264256,0,,0
1672219938296,9.584868431091309,-0.5173242688179016,3.731440544128418,0.6299998164176941,0.7699997425079346,0.9799996018409729,2.87932367750307,68.72877071828853,0.062744140625,10.29859096065108,0,,0
1672219938401,9.546547889709473,-0.5292993187904358,3.800896167755127,-0.9799996018409729,2.2399990558624268,0.06999997049570084,2.9487807898878318,68.2903462747344,0.0615234375,10.289001217681141,0,,0
1672219938509,9.644743919372559,-0.5269043445587158,3.6955153942108154,0.5599997639656067,-4.619998455047607,-0.8399997353553772,2.92038977680949,69.03498312059516,0.068115234375,10.341931516280598,0,,0
1672219938617,10.006392478942871,-0.6394702196121216,3.4272730350494385,-3.849998712539673,-21.069992065429688,0.48999980092048645,3.459791195813165,71.09323956153105,0.0751953125,10.59636791835732,0,,0
1672219938724,8.835227012634277,-0.34727784991264343,3.0153298377990723,-5.949997425079346,-6.859997272491455,-2.029999256134033,2.130380706720879,71.15600034010743,0.085205078125,9.342058247546081,0,,0
1672219938832,8.19336223602295,-0.5005590915679932,2.9698243141174316,-8.049997329711914,-1.1899995803833008,-1.329999566078186,3.2872613142861606,70.07608513235272,0.100830078125,8.729352816306683,0,,0
1672219938938,8.052056312561035,-0.6322851777076721,2.962639331817627,-1.1199995279312134,25.339990615844727,-5.949997425079346,4.214775813078,69.7996274551866,0.106201171875,8.603059177817832,0,,0
1672219939043,8.200547218322754,-0.4095483720302582,3.032094955444336,-6.649997711181641,6.0899977684021,-4.899998188018799,2.6819016266705784,69.70847919754675,0.090576171875,8.752731251889589,1,,0
1672219939150,8.92144775390625,-0.7209008932113647,3.64282488822937,-7.349997520446777,-1.7499994039535522,-3.9199984073638916,4.2782881214154465,67.7887176993948,0.061279296875,9.66344148271283,1,,0
1672219939259,9.903406143188477,-0.014370117336511612,3.832031488418579,-4.129998683929443,10.35999584197998,-2.72999906539917,0.07753565389638431,68.84651478592596,0.076904296875,10.618951222481767,1,,0
1672219939368,9.323811531066895,-0.02395019680261612,4.054768085479736,-6.019997596740723,-1.5399994850158691,-2.5199992656707764,0.13496587761909146,66.49659210932192,0.07666015625,10.167358521553565,1,,0
1672219939475,9.402847290039062,-0.3041674792766571,4.294270038604736,-2.5199992656707764,8.049997329711914,-1.8899993896484375,1.6854432354306836,65.45387211325846,0.095947265625,10.3415090861877,1,,0
1672219939582,9.187294960021973,-0.47181886434555054,4.414021015167236,-1.4699995517730713,10.569995880126953,-2.8699989318847656,2.6503376854398706,64.33811810651902,0.07666015625,10.203557381890665,1,,0
1672219939690,9.836345672607422,-0.32572266459465027,4.564907550811768,-0.7699997425079346,-9.379996299743652,-2.029999256134033,1.720485515040414,65.10465882806056,0.0703125,10.84887885418174,1,,0
1672219939798,10.015972137451172,-0.46223878860473633,4.6056227684021,-1.8899993896484375,9.869996070861816,-0.8399997353553772,2.4009899702316364,65.30571202112651,0.07080078125,11.03381727421262,1,,0
1672219939906,9.352551460266113,-0.35685792565345764,4.603227615356445,-4.129998683929443,2.659999132156372,-0.909999668598175,1.9607115480441262,63.79407318935215,0.06591796875,10.43011365589118,1,,0
1672219940014,9.357341766357422,-0.5652246475219727,4.718188762664795,-0.909999668598175,-1.329999566078186,-0.5599997639656067,3.087309204465894,63.24169907968169,0.064697265625,10.494790566501065,1,,0
1672219940122,9.462722778320312,-0.4790039360523224,5.031936168670654,1.6799994707107544,10.779995918273926,-5.039998531341553,2.5590676145252353,61.99755866285492,0.056884765625,10.728138177506459,1,,0
1672219940230,9.96088695526123,-0.21315674483776093,5.613925933837891,0.13999994099140167,6.229997634887695,-3.359998941421509,1.0680086077790123,60.59452296378143,0.0810546875,11.43594635891498,1,,0
1672219940337,12.346325874328613,-0.6059399843215942,6.44739294052124,-0.8399997353553772,-8.749996185302734,3.4299986362457275,2.4910182485409122,62.42592032108211,0.066650390625,13.941585332708723,1,,0
1672219940444,12.164304733276367,-0.2538720667362213,5.688171863555908,-1.1199995279312134,-7.979996681213379,0.06999997049570084,1.0830714673838715,64.93865689495992,0.087890625,13.430936669481687,1,,0
1672219940554,10.483000755310059,-0.23710694909095764,5.125341892242432,-1.329999566078186,4.689998149871826,3.5699985027313232,1.164068402378746,63.94509626497858,0.087646484375,11.671274739869409,1,,0
1672219940670,9.429192543029785,-0.4837939739227295,4.416416168212891,-0.13999994099140167,8.46999740600586,0.27999988198280334,2.6602800203765957,64.90269283167999,0.089111328125,10.423457218868636,0,,0
1672219940776,9.16094970703125,-0.40715333819389343,4.912185192108154,0.9799996018409729,-1.2599996328353882,-2.169999122619629,2.243061320580823,61.79938286473292,0.095458984375,10.402804272749007,0,,0
1672219940884,9.259145736694336,-0.268242210149765,4.768484115600586,1.7499994039535522,-5.809998035430908,-0.13999994099140167,1.4753616409583925,62.75141496555615,0.078857421875,10.418357568128771,0,,0
1672219940992,9.27112102508545,-0.42631348967552185,4.550537109375,10.079997062683105,-9.799996376037598,2.099999189376831,2.363753834023388,63.85684650133196,0.080322265625,10.33647987648889,0,,0
1672219941099,8.909473419189453,-0.387993186712265,4.13140869140625,5.739997863769531,-5.039998531341553,3.709998607635498,2.262434401090712,65.12239075238122,0.109375,9.828417629283244,0,,0
1672219941208,8.131092071533203,-0.2251318395137787,3.353027582168579,7.979996681213379,3.149998903274536,5.249998092651367,1.466268995235977,67.59016316462005,0.093994140625,8.798189392579376,0,,0
1672219941315,7.814949035644531,-0.2538720667362213,3.511098861694336,2.169999122619629,-16.869993209838867,7.069997310638428,1.6973006510461326,65.80657878653018,0.09375,8.57121313890756,0,,0
1672219941420,8.076005935668945,-0.4550537168979645,3.2763869762420654,6.159997940063477,-13.579995155334473,7.209997177124023,2.9888794119059727,67.91790178360047,0.08642578125,8.72717923365341,0,,0
1672219941527,7.989785671234131,-0.4598437547683716,3.151845932006836,2.4499990940093994,-9.029996871948242,3.289998769760132,3.0646170762238927,68.47153843553741,0.097900390625,8.601294328772022,0,,0
1672219941635,8.555009841918945,-0.5580395460128784,2.9794044494628906,1.6799994707107544,-14.839994430541992,3.5699985027313232,3.5250077397786987,70.79859750427724,0.0849609375,9.076147442815346,0,,0
1672219941742,9.776470184326172,-0.37601807713508606,3.4081130027770996,-3.149998903274536,-16.099994659423828,0.6999997496604919,2.079955580923097,70.78125975844706,0.101318359375,10.36030854265689,0,,0
1672219941850,9.489068031311035,-0.38559815287590027,3.060835123062134,-0.7699997425079346,3.709998607635498,-0.6999997496604919,2.21474488023543,72.12214880196198,0.099365234375,9.977966210051083,0,,0
1672219941957,10.092612266540527,-0.48618897795677185,2.9889845848083496,-2.2399990558624268,7.629997253417969,-1.7499994039535522,2.6445962847268594,73.50304476908406,0.098876953125,10.537135803112387,0,,0
1672219942064,10.914104461669922,-0.6370752453804016,3.000959634780884,-5.319998264312744,-3.0099987983703613,-1.609999418258667,3.221373811977841,74.62579427980373,0.09521484375,11.337076333786591,0,,0
1672219942171,9.20645523071289,-0.6634204387664795,2.3519093990325928,-7.839996814727783,-7.1399970054626465,-0.48999980092048645,3.9938041297586167,75.66953847373054,0.112548828125,9.525251829476831,0,,0
1672219942279,6.071374893188477,-0.4574487507343292,1.5926880836486816,-7.419997215270996,-5.319998264312744,-8.539997100830078,4.168304944558537,75.30094750122178,0.1171875,6.293449593425238,0,,0
1672219942387,9.036409378051758,-0.53648442029953,4.124223709106445,0.8399997353553772,29.259990692138672,0.7699997425079346,3.091536764592017,65.4680100699342,0.098876953125,9.947549003836151,0,,0
1672219942496,8.454419136047363,-0.6825805902481079,3.2955470085144043,-2.099999189376831,19.80999183654785,-1.3999994993209839,4.301893826584326,68.70407856545043,0.094970703125,9.099656547116245,1,,0
1672219942603,9.08670425415039,-0.7113208174705505,3.659590005874634,-7.069997310638428,0.6299998164176941,-3.6399986743927,4.153169604084114,68.06332376904368,0.076904296875,9.8217498705098,1,,0
1672219942710,9.503437995910645,-0.1149609386920929,3.9278321266174316,-1.7499994039535522,11.899994850158691,-0.9799996018409729,0.6405139898193977,67.54437712268737,0.0830078125,10.283793802601796,1,,0
1672219942817,9.441167831420898,-0.3927832245826721,4.136198997497559,-4.5499982833862305,11.199995994567871,-0.8399997353553772,2.1822962111270843,66.34165518236055,0.084716796875,10.314944053627734,1,,0
1672219942923,9.295071601867676,-0.4047583043575287,4.49066162109375,-3.9199984073638916,7.629997253417969,-0.909999668598175,2.24538038050969,64.21374971596612,0.076904296875,10.330935444767704,1,,0
1672219943030,9.285490989685059,-0.38080811500549316,4.986430644989014,-0.13999994099140167,15.679993629455566,-2.169999122619629,2.069248113957181,61.76361738195747,0.09423828125,10.546556230223304,1,,0
1672219943137,9.225615501403809,-0.49097901582717896,4.77087926864624,-1.8899993896484375,-0.27999988198280334,-0.6299998164176941,2.7064839344385283,62.65497917844887,0.093994140625,10.397804132109979,1,,0
1672219943245,9.563313484191895,-0.4598437547683716,5.07025671005249,0.7699997425079346,2.3099992275238037,-0.9799996018409729,2.4326179020288277,62.06845682631858,0.089599609375,10.834016991936014,1,,0
1672219943355,9.354947090148926,-0.19639161229133606,4.615202903747559,-1.6799994707107544,-3.779998779296875,0.27999988198280334,1.0785731774519558,63.740869254267665,0.099609375,10.433297780070506,1,,0
1672219943465,8.689130783081055,-0.32572266459465027,4.320615291595459,-0.27999988198280334,5.039998531341553,-0.5599997639656067,1.9224465805265618,63.5614289365027,0.104736328125,9.709521384583585,1,,0
1672219943574,9.936936378479004,-0.4598437547683716,5.671406269073486,-0.06999997049570084,11.829995155334473,-4.899998188018799,2.301531352644448,60.28487198797565,0.10107421875,11.450720935278483,1,,0
1672219943681,14.817986488342285,-0.2538720667362213,7.8772196769714355,-5.669997692108154,-24.07999038696289,0.6999997496604919,0.8667026463452683,62.00495448381422,0.11279296875,16.78355637027592,1,,0
1672219943789,11.728410720825195,-0.4334985613822937,6.492898464202881,4.829998016357422,6.229997634887695,-0.06999997049570084,1.8521187038396534,61.03089835684,0.119140625,13.412727892026142,1,,0
1672219943897,9.728569984436035,-0.03592529520392418,5.106181621551514,0.909999668598175,-12.599995613098145,0.13999994099140167,0.18734198546942343,62.30661092517762,0.10693359375,10.98724056900438,1,,0
1672219944005,8.725056648254395,0.16046631336212158,4.533771991729736,5.249998092651367,-5.5999979972839355,2.3099992275238037,-0.934965989727895,62.54240914206986,0.109619140625,9.833994683035234,0,,0
1672219944112,8.677156448364258,-0.38080811500549316,4.107458591461182,5.249998092651367,-10.149996757507324,5.809998035430908,2.2715376191658962,64.6687829738513,0.099365234375,9.607771590249829,0,,0
1672219944219,9.036409378051758,-0.3592529594898224,4.390070915222168,4.4799981117248535,-0.34999987483024597,4.129998683929443,2.0479959360809383,64.0885786006009,0.093505859375,10.052784677755888,0,,0
1672219944327,9.125024795532227,-0.14370118081569672,4.25115966796875,1.6799994707107544,-8.119997024536133,5.17999792098999,0.8178362838508076,65.02016550400796,0.079345703125,10.067724969972609,0,,0
1672219944433,8.693921089172363,-0.2802172899246216,3.7290456295013428,2.659999132156372,-3.6399986743927,5.739997863769531,1.696692828539016,66.78426634838416,0.095703125,9.46406714585393,0,,0
1672219944539,8.2628173828125,-0.31614258885383606,3.5063087940216064,3.149998903274536,-3.0099987983703613,3.219998836517334,2.017176548992117,67.00616434685192,0.075439453125,8.981553239681256,0,,0
1672219944648,7.6568779945373535,-0.4095483720302582,3.4248781204223633,2.5199992656707764,-9.869996070861816,2.3799991607666016,2.7952950839459856,65.90130280109084,0.087158203125,8.397934307436014,0,,0
1672219944756,7.807764053344727,-0.5460644960403442,3.1853761672973633,3.289998769760132,-15.889994621276855,2.169999122619629,3.7051175162289027,67.80574571745967,0.0859375,8.450206345038204,0,,0
1672219944864,9.000483512878418,-0.5628296136856079,3.4847536087036133,2.029999256134033,-8.46999740600586,1.329999566078186,3.3374242684785402,68.83489002068315,0.1064453125,9.667936095827825,0,,0
1672219944972,9.089099884033203,-0.37122803926467896,3.1590309143066406,2.5199992656707764,-3.9899983406066895,2.659999132156372,2.209343239725231,70.83446205988012,0.095947265625,9.629591023330832,0,,0
1672219945079,9.659113883972168,-0.22273682057857513,3.182981014251709,-0.6999997496604919,-16.79999351501465,2.169999122619629,1.2546490992141104,71.76132726042819,0.085693359375,10.17248548054369,0,,0
1672219945186,9.829160690307617,-0.43110352754592896,3.0296998023986816,2.3799991607666016,11.689995765686035,1.3999994993209839,2.4000745829963988,72.86882565888449,0.1103515625,10.294529179132267,0,,0
1672219945294,10.796748161315918,-0.40715333819389343,3.0991554260253906,-5.949997425079346,-15.259994506835938,-0.27999988198280334,2.075891666930232,73.98412499048942,0.10693359375,11.240120508888849,0,,0
1672219945401,9.891430854797363,-0.5915698409080505,2.615361452102661,-6.0899977684021,-7.839996814727783,0.7699997425079346,3.3091195876879937,75.18953605488578,0.1025390625,10.248437673960543,0,,0
1672219945508,5.824687957763672,-0.35206788778305054,1.3915064334869385,-6.509997367858887,-14.20999526977539,-6.229997634887695,3.364530359331772,76.56398167326381,0.093994140625,5.998935885418404,0,,0
1672219945615,7.683222770690918,-0.5628296136856079,2.6584718227386475,0.2099999338388443,35.979984283447266,-4.409998416900635,3.960121632233747,70.91386889126912,0.079833984375,8.149611141054539,0,,0
1672219945722,9.15137004852295,-0.6777905821800232,4.085903644561768,-5.319998264312744,13.71999454498291,-1.3999994993209839,3.869004898190035,65.94019398816134,0.0849609375,10.044977970654688,1,,0
1672219945829,10.061477661132812,-0.4981640875339508,4.076323509216309,-5.17999792098999,11.199995994567871,-5.109997749328613,2.627399762079822,67.94508138708129,0.098876953125,10.867286392442812,1,,0
1672219945936,9.884245872497559,-0.1700463891029358,4.016448020935059,-1.2599996328353882,18.969993591308594,-4.199998378753662,0.9131131195556117,67.88571004479621,0.075927734375,10.670477353300793,1,,0
1672219946042,9.577683448791504,-0.2395019680261612,4.155359268188477,-3.4999988079071045,12.039995193481445,-3.149998903274536,1.314147869419891,66.5459797758648,0.07666015625,10.443006850790772,1,,0
1672219946149,9.429192543029785,-0.2395019680261612,4.536167144775391,-1.81999933719635,14.349995613098145,-4.619998455047607,1.3112202184947355,64.30886543856545,0.06787109375,10.466319580996782,1,,0
1672219946257,9.134604454040527,0.002395019633695483,4.507426738739014,1.0499995946884155,7.069997310638428,-1.4699995517730713,-0.013471660452825208,63.736185761297264,0.05322265625,10.186162185680901,1,,0
1672219946364,9.043594360351562,-0.11735596507787704,4.756508827209473,-0.8399997353553772,3.219998836517334,-4.5499982833862305,0.658014754620435,62.257723157479575,0.068603515625,10.218842772077648,1,,0
1672219946473,9.656719207763672,0.02395019680261612,5.178032398223877,1.1199995279312134,1.0499995946884155,-2.3799991607666016,-0.12523455586613605,61.799331914936126,0.06201171875,10.957409319112562,1,,0
1672219946579,9.290281295776367,0.07903564721345901,4.960085868835449,-0.34999987483024597,-5.249998092651367,-1.8899993896484375,-0.4299804000352766,61.90221904838135,0.071044921875,10.531762673665021,1,,0
1672219946689,10.437495231628418,-0.20836670696735382,5.776787281036377,-1.2599996328353882,-4.4799981117248535,-2.029999256134033,1.0006568187296463,61.037011480452875,0.09423828125,11.931303142791322,1,,0
1672219946798,13.244458198547363,-0.19160157442092896,6.38751745223999,-0.8399997353553772,-10.989995956420898,0.6999997496604919,0.7465401366621226,64.2529860993345,0.078857421875,14.705535125899345,1,,0
1672219946906,12.209810256958008,-0.11017090082168579,5.704936981201172,0.06999997049570084,-5.5999979972839355,0.8399997353553772,0.46837221331779444,64.9560402983684,0.073974609375,13.477310937192982,1,,0
1672219947013,10.267449378967285,-0.07424560934305191,4.809199333190918,-0.34999987483024597,6.439997673034668,1.3999994993209839,0.37519150230016396,64.90194684332408,0.081787109375,11.338184483704893,1,,0
1672219947118,9.8100004196167,-0.3544628918170929,4.59125280380249,2.589998960494995,2.72999906539917,4.409998416900635,1.8743916967907248,64.91957906711464,0.05810546875,10.837036240733875,0,,0
1672219947223,9.067543983459473,-0.10298584401607513,4.205654621124268,1.8899993896484375,-7.839996814727783,1.5399994850158691,0.5903164915881034,65.11746560648928,0.04345703125,9.995923707603199,0,,0
1672219947327,9.295071601867676,-0.07424560934305191,4.275110244750977,2.659999132156372,-11.75999641418457,5.739997863769531,0.41578082714240594,65.30073791878954,0.060546875,10.23134576187944,0,,0
1672219947432,9.235196113586426,-0.11735596507787704,3.891906976699829,4.689998149871826,-5.319998264312744,5.529997825622559,0.6709091398174798,67.14841326267917,0.07421875,10.022452773359722,0,,0
1672219947536,8.753796577453613,-0.1987866312265396,3.6547999382019043,6.299997806549072,-1.7499994039535522,6.719997882843018,1.2004871792516454,67.33896288302827,0.0791015625,9.488204953123306,0,,0
1672219947645,8.054450988769531,-0.24668702483177185,3.202141284942627,5.739997863769531,0.7699997425079346,6.579997539520264,1.6302384257210714,68.3191261486247,0.094482421875,8.67114433206165,0,,0
1672219947752,6.947951793670654,-0.17244140803813934,3.0704152584075928,0.909999668598175,-6.299997806549072,4.199998378753662,1.3004573545403204,66.1585688615469,0.08837890625,7.598106344704554,0,,0
1672219947856,6.468947887420654,-0.4239184856414795,2.761457681655884,4.269998550415039,-11.969995498657227,1.3999994993209839,3.4490232884929815,66.88338425997368,0.087158203125,7.046463097200538,0,,0
1672219947961,10.212363243103027,-0.5197192430496216,3.7170705795288086,1.3999994993209839,-18.26999282836914,5.319998264312744,2.7379104285596245,69.99963180256515,0.10693359375,10.880215291706156,0,,0
1672219948065,9.465117454528809,-0.41673341393470764,2.9362940788269043,1.2599996328353882,-9.029996871948242,-2.3799991607666016,2.4079458005319756,72.76492474169855,0.107177734375,9.918867782346407,0,,0
1672219948172,9.680669784545898,-0.5292993187904358,3.091970443725586,-0.2099999338388443,6.509997367858887,3.4999988079071045,2.9814858792210845,72.2867086729279,0.123046875,10.1762373434961,0,,0
1672219948281,9.956096649169922,-0.6227051019668579,3.0584399700164795,-3.289998769760132,0.48999980092048645,-0.8399997353553772,3.421509257185603,72.9234257539063,0.093017578125,10.433871629544926,0,,0
1672219948385,10.34408950805664,-0.6203100681304932,3.381767749786377,-6.0899977684021,7.979996681213379,0.0,3.2622628081344196,71.89600595707368,0.112060546875,10.900519503436831,0,,0
1672219948490,9.980047225952148,-0.6466553211212158,2.7470874786376953,-7.489997386932373,-32.759986877441406,1.3999994993209839,3.574701455532799,74.61000867102914,0.09716796875,10.371402766832343,0,,0
1672219948597,6.825806140899658,-0.35206788778305054,1.841770052909851,-7.55999755859375,-22.959991455078125,-6.579997539520264,2.8508609598273607,74.89979502079436,0.085205078125,7.078679128096361,0,,0
1672219948703,6.076164722442627,-0.670605480670929,2.785407781600952,-7.419997215270996,15.1199951171875,-8.609996795654297,5.729156881680212,65.37254728423508,0.06201171875,6.717736669054936,0,,0
1672219948808,9.019643783569336,-0.5340893864631653,2.941084146499634,-1.3999994993209839,25.82999038696289,-2.029999256134033,3.2221638315624888,71.94012554591882,0.07958984375,9.50206300821064,1,,0
1672219948914,10.097402572631836,-0.5556445717811584,3.6260597705841064,-7.839996814727783,2.8699989318847656,-4.339998245239258,2.964716507701724,70.24637208757322,0.065185546875,10.74311821883155,1,,0
1672219949022,10.696157455444336,-0.25626710057258606,4.260739803314209,-0.7699997425079346,20.229991912841797,-6.159997940063477,1.2750721862201781,68.28047974734427,0.060791015625,11.516395304522996,1,,0
1672219949128,10.02076244354248,-0.3353027403354645,4.038002967834473,-1.8899993896484375,12.949995040893555,-5.17999792098999,1.777647223031907,68.05235725223136,0.04736328125,10.808958129525156,1,,0
1672219949237,9.778864860534668,-0.09819580614566803,4.658313274383545,-0.6999997496604919,12.529995918273926,-5.879998207092285,0.519405321039195,64.52848381203421,0.051513671875,10.832161508177501,1,,0
1672219949344,9.263936042785645,-0.07903564721345901,4.754114151000977,2.2399990558624268,18.619993209838867,-3.0799989700317383,0.434888951602578,62.833780178479806,0.042724609375,10.412893882062813,1,,0
1672219949453,9.328601837158203,-0.0646655336022377,4.974455833435059,1.7499994039535522,13.229995727539062,-3.149998903274536,0.3504542231242647,61.93133143514582,0.03466796875,10.572237450334889,1,,0
1672219949559,9.659113883972168,-0.08861572295427322,5.213957786560059,0.06999997049570084,6.019997596740723,0.27999988198280334,0.46255096164010534,61.639973054602905,0.044921875,10.976870663806187,1,,0
1672219949664,9.038804054260254,-0.1341211050748825,5.295388221740723,1.1899995803833008,2.659999132156372,0.7699997425079346,0.733518959547336,59.63607233499856,0.057373046875,10.476597902997351,1,,0
1672219949767,10.279424667358398,0.02634521573781967,6.3300371170043945,-0.34999987483024597,-5.739997863769531,-2.3799991607666016,-0.125037524650738,58.37537023538768,0.061767578125,12.072142952472934,1,,0
1672219949874,13.292359352111816,0.07185059040784836,6.837780952453613,0.2099999338388443,-22.53999137878418,3.9199984073638916,-0.2754020449512605,62.7780582610797,0.06884765625,14.948151324051876,1,,0
1672219949984,12.245735168457031,0.1341211050748825,6.025869369506836,-0.909999668598175,2.659999132156372,-1.0499995946884155,-0.563034920552323,63.79916894367205,0.07568359375,13.648703965768053,1,,0
1672219950095,9.92496109008789,0.2251318395137787,5.326523780822754,-1.3999994993209839,-0.48999980092048645,1.4699995517730713,-1.1450139592424213,61.77845383747676,0.04052734375,11.266205775352756,1,,0
1672219950202,9.115445137023926,0.08382568508386612,4.979245662689209,2.659999132156372,10.91999626159668,2.2399990558624268,-0.4623930926716056,61.35474724200812,0.054931640625,10.38707149108844,0,,0
1672219950312,8.756192207336426,-0.05269043147563934,4.957690715789795,1.329999566078186,-5.039998531341553,3.0799989700317383,0.3000224561275477,60.48178452881714,0.07861328125,10.062423936945638,0,,0
1672219950418,9.189690589904785,-0.040715333074331284,5.031936168670654,2.4499990940093994,-15.609993934631348,4.759998321533203,0.22265632382802847,61.29651025359868,0.100341796875,10.477234963582129,0,,0
1672219950526,9.053174018859863,-0.04790039360523224,4.77087926864624,0.2099999338388443,-7.419997215270996,4.059998512268066,0.26818910869387114,62.21148000450112,0.105712890625,10.233452167253496,0,,0
1672219950631,8.399333953857422,-0.040715333074331284,3.810476303100586,2.7999989986419678,-6.439997673034668,7.839996814727783,0.25292590512602015,65.59791004510363,0.099853515625,9.22335070694271,0,,0
1672219950737,7.781418800354004,-0.09819580614566803,3.3458423614501953,2.169999122619629,-10.35999584197998,4.759998321533203,0.664201535275459,66.7333375293641,0.101806640625,8.4708194450432,0,,0
1672219950842,7.201824188232422,0.021555176004767418,2.9362940788269043,-0.06999997049570084,-8.679996490478516,3.219998836517334,-0.15879548216724645,67.8185250222959,0.10791015625,7.777439114591391,0,,0
1672219950949,7.7766289710998535,-0.20597168803215027,3.599714517593384,4.339998245239258,10.079997062683105,0.06999997049570084,1.3768868217514418,65.16110989324397,0.088623046875,8.571833356907549,0,,0
1672219951057,8.799302101135254,-0.3041674792766571,3.482358455657959,4.899998188018799,-13.929994583129883,2.2399990558624268,1.8409505577955467,68.40862255936489,0.099853515625,9.46821291143082,0,,0
1672219951165,9.778864860534668,-0.2442920058965683,3.4655933380126953,0.13999994099140167,-27.64999008178711,1.6799994707107544,1.3488752589339463,70.48586277158962,0.123779296875,10.377678629116565,0,,0
1672219951269,9.747730255126953,-0.14130616188049316,3.0704152584075928,2.169999122619629,1.5399994850158691,-1.4699995517730713,0.7921561314490629,72.51621321550898,0.11669921875,10.220844506065285,0,,0
1672219951375,9.113049507141113,-0.06227051094174385,3.391347885131836,-1.4699995517730713,11.619996070861816,-4.5499982833862305,0.36691955471925364,69.58765562439696,0.1162109375,9.72382586300917,0,,0
1672219951484,10.190808296203613,0.09340576827526093,3.709885358810425,-3.0799989700317383,2.4499990940093994,-2.3799991607666016,-0.493460864821466,69.99635377399305,0.11279296875,10.845485131751158,0,,0
1672219951589,10.126143455505371,-0.25626710057258606,3.6691701412200928,0.8399997353553772,4.269998550415039,2.3799991607666016,1.3630179618298643,70.08220572535699,0.079345703125,10.773451797522055,0,,0
1672219951695,9.129815101623535,-0.14609619975090027,3.6571950912475586,-2.72999906539917,-35.20998764038086,2.72999906539917,0.8510442876753912,68.17009034779294,0.057373046875,9.836154930909743,0,,0
1672219951802,6.938371658325195,-0.32093262672424316,1.9639160633087158,-3.149998903274536,-25.549991607666016,1.5399994850158691,2.548336732579735,74.19575850031217,0.068603515625,7.2180998416251105,0,,0
1672219951908,8.279582977294922,-0.3233276605606079,2.2010231018066406,2.099999189376831,27.57999038696289,-2.8699989318847656,2.1613407351910316,75.1129492424796,0.057861328125,8.573245461823776,1,,0
1672219952017,8.44244384765625,-0.35206788778305054,2.581831216812134,-5.529997825622559,14.489995002746582,-1.5399994850158691,2.283688165402093,72.9955494668458,0.045166015625,8.835420892665075,1,,0
1672219952123,9.489068031311035,-0.24668702483177185,2.9794044494628906,-5.389997959136963,5.949997425079346,-6.579997539520264,1.4208213339771691,72.56860688266848,0.073486328125,9.948875185896581,1,,0
1672219952228,9.553732872009277,0.03353027626872063,3.154240846633911,-3.219998836517334,19.879993438720703,-3.0799989700317383,-0.19094946830643686,71.72894947282498,0.06298828125,10.061022382825271,1,,0
1672219952332,9.66150951385498,0.25626710057258606,3.4679884910583496,-3.849998712539673,9.939996719360352,-4.689998149871826,-1.4300896827366105,70.2544541994054,0.080810546875,10.26827069604514,1,,0
1672219952438,9.558523178100586,0.03832031413912773,4.562512397766113,0.8399997353553772,28.27998924255371,-0.5599997639656067,-0.20729481174099015,64.48373759486971,0.07421875,10.591664324955325,1,,0
1672219952547,9.63037395477295,-0.040715333074331284,4.660708427429199,-3.359998941421509,15.1199951171875,-1.9599992036819458,0.21804176821670546,64.17491026985242,0.073974609375,10.698970197763245,1,,0
1672219952655,9.472302436828613,-0.02634521573781967,5.192402362823486,-0.9799996018409729,18.47999382019043,-4.689998149871826,0.13973814752430233,61.26990652001228,0.10009765625,10.80214098327718,1,,0
1672219952764,9.75012493133545,0.3305127024650574,5.118156909942627,2.3799991607666016,1.1199995279312134,-1.7499994039535522,-1.719177858508987,62.30356168059025,0.09326171875,11.016791954917425,1,,0
1672219952871,9.9297513961792,0.2395019680261612,5.352869033813477,-1.3999994993209839,12.1799955368042,-3.4299986362457275,-1.2162761000017777,61.67205524364137,0.090087890625,11.283196837588644,1,,0
1672219952977,11.3667631149292,0.10777588188648224,6.274951457977295,-4.689998149871826,-11.899994850158691,-4.129998683929443,-0.47559073276806857,61.09937766876625,0.073486328125,12.984218696232851,1,,0
1672219953082,13.33786392211914,0.06706055253744125,6.844965934753418,0.6299998164176941,-9.799996376037598,-0.34999987483024597,-0.25629191987021177,62.83319327701469,0.07080078125,14.991886798218854,1,,0
1672219953187,11.024275779724121,-0.040715333074331284,5.949228763580322,6.019997596740723,10.91999626159668,1.2599996328353882,0.18622110710096632,61.646569344932445,0.080322265625,12.527155985584704,1,,0
1672219953293,9.814790725708008,0.05748046934604645,5.566025733947754,-0.27999988198280334,-3.359998941421509,0.13999994099140167,-0.29188153877567574,60.44217209077598,0.07421875,11.28335337852931,0,,0
1672219953406,9.16094970703125,0.3400927782058716,5.26425313949585,4.129998683929443,-17.289993286132812,2.099999189376831,-1.8436107523074505,60.11657848100225,0.060302734375,10.571235677499374,0,,0
1672219953513,9.457932472229004,0.08861572295427322,4.701423645019531,2.2399990558624268,-26.459991455078125,4.129998683929443,-0.48070319883055007,63.5685858589209,0.0654296875,10.562373013937128,0,,0
1672219953619,9.213640213012695,-0.07185059040784836,3.8176612854003906,5.809998035430908,-7.979996681213379,4.5499982833862305,0.41277062303890816,67.49338383907167,0.081787109375,9.973508217885596,0,,0
1672219953725,8.789722442626953,0.045505374670028687,3.460803270339966,4.199998378753662,-14.629995346069336,6.509997367858887,-0.2760012165314446,68.50880624882284,0.085205078125,9.446610536776648,0,,0
1672219953831,8.099956512451172,-0.0646655336022377,3.0895752906799316,6.369997501373291,-10.00999641418457,8.259997367858887,0.4273750514567791,69.1215935676585,0.084716796875,8.66942631386969,0,,0
1672219953938,7.050937652587891,-0.08622070401906967,2.5147705078125,3.359998941421509,-19.10999298095703,4.199998378753662,0.659882689135995,70.3708377911603,0.093994140625,7.486469561645643,0,,0
1672219954045,6.061794757843018,-0.1389111429452896,2.066901922225952,6.439997673034668,-19.10999298095703,-0.9799996018409729,1.2425313534507458,71.17206403480131,0.070556640625,6.405992159529139,0,,0
1672219954150,10.480606079101562,-0.0598754920065403,2.735112428665161,4.829998016357422,5.45999813079834,7.90999698638916,0.31671889819181737,75.37379643825699,0.04296875,10.831783272263266,0,,0
1672219954257,9.833950996398926,-0.22034180164337158,2.2992188930511475,-2.2399990558624268,-8.749996185302734,-4.409998416900635,1.2498717442009186,76.84039561636177,0.070556640625,10.10156177169106,0,,0
1672219954369,9.0914945602417,-0.268242210149765,2.914738893508911,0.0,19.949993133544922,6.509997367858887,1.6093661128680494,72.22411689739992,0.068603515625,9.551069575683343,0,,0
1672219954475,9.910591125488281,-0.48139894008636475,3.4488282203674316,-3.0099987983703613,-0.6999997496604919,-2.2399990558624268,2.626646581588329,70.81239994584212,0.0732421875,10.504569362412061,0,,0
1672219954582,9.587264060974121,-0.15807129442691803,2.905158758163452,-1.1199995279312134,10.219995498657227,0.06999997049570084,0.9040008549463274,73.14199966129948,0.072265625,10.01901023650049,0,,0
1672219954688,11.072175979614258,-0.5771997570991516,3.2883620262145996,-4.059998512268066,-8.329997062683105,-0.2099999338388443,2.8608777243714894,73.45893360345787,0.067138671875,11.564582365939224,0,,0
1672219954794,9.874666213989258,-0.38559815287590027,2.502795457839966,-3.709998607635498,-15.399994850158691,0.4199998676776886,2.167744354571755,75.77753116099537,0.041748046875,10.194199521148613,0,,0
1672219954900,7.266489505767822,-0.08861572295427322,1.482517123222351,-6.369997501373291,-17.009994506835938,-0.5599997639656067,0.684593046996649,78.4687095116287,0.046630859375,7.416709479576241,0,,0
1672219955006,5.906118392944336,-0.43110352754592896,2.5195605754852295,-6.229997634887695,24.42999267578125,-8.329997062683105,3.840997808019359,66.89681882281127,0.058837890625,6.435547390585931,0,,0
1672219955111,8.281977653503418,-0.10059082508087158,3.4368531703948975,-0.5599997639656067,33.5999870300293,-5.45999813079834,0.6427267161938308,67.4625389085287,0.021728515625,8.967342531769035,1,,0
1672219955216,10.003996849060059,-0.1652563512325287,3.4679884910583496,-5.809998035430908,-6.0899977684021,-7.55999755859375,0.8941890858137381,70.88059969494276,0.0263671875,10.58934402084187,1,,0
1672219955323,9.867481231689453,0.03592529520392418,4.1266188621521,-3.6399986743927,12.529995918273926,-4.339998245239258,-0.19244897602015093,67.30512960982345,0.01513671875,10.695674813589303,1,,0
1672219955431,9.704619407653809,0.15088623762130737,4.23199987411499,-3.779998779296875,19.949993133544922,-5.319998264312744,-0.8165080513979924,66.4389001529266,0.0263671875,10.588306164756654,1,,0
1672219955537,9.548943519592285,0.31614258885383606,4.804409503936768,-3.0099987983703613,18.899991989135742,-3.0099987983703613,-1.694037700797289,63.29142270340386,0.01416015625,10.694139477226237,1,,0
1672219955643,9.228010177612305,-0.02634521573781967,4.996010780334473,-1.329999566078186,13.3699951171875,2.029999256134033,0.1438459647657364,61.56904860833051,0.0302734375,10.493664261149526,1,,0
1672219955747,9.335786819458008,0.20357666909694672,5.206772804260254,0.34999987483024597,18.339994430541992,-0.27999988198280334,-1.0910306987906417,60.85063476861527,0.047119140625,10.69153132314313,1,,0
1672219955853,9.069939613342285,0.13172608613967896,5.436694622039795,-1.81999933719635,15.889994621276855,-0.13999994099140167,-0.7136896413116351,59.060724631326146,0.0478515625,10.575386743035061,1,,0
1672219955961,9.201665878295898,-0.05269043147563934,5.817502498626709,-2.3799991607666016,3.849998712539673,-1.7499994039535522,0.2773104185677309,57.69799459819739,0.057861328125,10.886540613936647,1,,0
1672219956067,10.27463436126709,0.42152345180511475,6.883286476135254,2.169999122619629,6.0899977684021,-4.059998512268066,-1.9521120667213594,56.180680427891225,0.064208984375,12.374385883376133,1,,0
1672219956172,13.100757598876953,0.18681153655052185,7.110813140869141,0.6299998164176941,-24.28999137878418,5.17999792098999,-0.71802224917421,61.50782974946815,0.079833984375,14.907327451259594,1,,0
1672219956279,11.702065467834473,0.44547364115715027,6.468947887420654,2.029999256134033,4.829998016357422,0.48999980092048645,-1.908172976758273,61.06600967041503,0.08544921875,13.378492805567225,1,,0
1672219956386,9.44595718383789,0.4143384099006653,5.3887939453125,-3.849998712539673,4.5499982833862305,1.9599992036819458,-2.181922483980942,60.295812188697425,0.08740234375,10.882871111147752,1,,0
1672219956499,8.480764389038086,-0.21555176377296448,5.043911457061768,0.2099999338388443,17.149993896484375,2.72999906539917,1.2514255955417786,59.25805006777975,0.054443359375,9.869694522725673,0,,0
1672219956605,8.147856712341309,-0.16046631336212158,5.240303039550781,7.069997310638428,-4.899998188018799,0.06999997049570084,0.9489721869821443,57.25285778639041,0.07373046875,9.688864453014837,0,,0
1672219956711,8.734636306762695,0.2251318395137787,5.0031962394714355,5.5999979972839355,-7.1399970054626465,3.4999988079071045,-1.2812298270248146,60.19593572106329,0.059814453125,10.068591180857482,0,,0
1672219956818,9.297466278076172,0.17723144590854645,5.316943645477295,5.669997692108154,-8.679996490478516,4.339998245239258,-0.9480208672581707,60.23604867146099,0.0458984375,10.71187098067204,0,,0
1672219956928,9.127419471740723,0.07185059040784836,4.972060680389404,3.9899983406066895,-13.229995727539062,4.969998359680176,-0.39606959949119913,61.42115015716314,0.070068359375,10.394052921258771,0,,0
1672219957034,8.674760818481445,0.09819580614566803,4.421206474304199,2.8699989318847656,-8.749996185302734,4.619998455047607,-0.5778299120161938,62.99373399575951,0.05615234375,9.736949438229349,0,,0
1672219957140,7.865244388580322,0.05269043147563934,4.095483779907227,3.4299986362457275,-0.9799996018409729,3.219998836517334,-0.34044046482440243,62.493714656635326,0.044189453125,8.867797526169985,0,,0
1672219957246,7.199429035186768,0.11256591975688934,3.9062769412994385,1.7499994039535522,-6.439997673034668,5.669997692108154,-0.7873553892115276,61.51656163729977,0.077880859375,8.191669491691464,0,,0
1672219957353,6.835385799407959,-0.0694555714726448,3.0296998023986816,1.4699995517730713,-10.569995880126953,0.9799996018409729,0.5322371545257111,66.09527970446442,0.068115234375,7.477058512263441,0,,0
1672219957461,9.582473754882812,-0.12214600294828415,4.708608627319336,1.4699995517730713,-5.17999792098999,5.809998035430908,0.6554513004586068,63.83155293421052,0.064697265625,10.677533334732336,0,,0
1672219957568,9.26633071899414,-0.2850073277950287,4.061953067779541,6.0899977684021,-5.389997959136963,0.909999668598175,1.6135761340344492,66.32946223477057,0.041259765625,10.121540243239414,0,,0
1672219957674,9.165740013122559,0.01197509840130806,4.136198997497559,2.589998960494995,0.909999668598175,0.6999997496604919,-0.06823155689963258,65.71189878881111,0.017578125,10.055798105473153,0,,0
1672219957781,9.50583267211914,-0.13172608613967896,3.472778558731079,-6.229997634887695,-21.209991455078125,-0.48999980092048645,0.7457191478566877,69.93116734913262,0.03515625,10.121185576308722,0,,0
1672219957886,10.22433853149414,-0.1149609386920929,4.696633338928223,-9.169997215270996,-10.149996757507324,0.9799996018409729,0.5853946527869334,65.32792942220335,0.04736328125,11.25205221923329,0,,0
1672219957993,9.103469848632812,0.3041674792766571,3.7266504764556885,-5.529997825622559,17.63999366760254,6.0899977684021,-1.7711146810023235,67.73747882134187,0.017333984375,9.841422911047145,0,,0
1672219958099,8.205337524414062,-1.0106983184814453,4.184099197387695,-5.319998264312744,-17.989992141723633,6.229997634887695,6.262164071027964,62.981870560199496,-0.010009765625,9.265838390243976,0,,0
1672219958205,10.250683784484863,-0.2778222858905792,4.222419738769531,-1.1899995803833008,30.659988403320312,10.35999584197998,1.4355338481768798,67.61245799452782,0.008544921875,11.089748947671852,0,,0
1672219958312,9.261541366577148,-0.6921606659889221,5.039121150970459,6.229997634887695,29.469987869262695,4.969998359680176,3.755910247386041,61.449786939842824,0.0234375,10.566360624478031,0,,0
1672219958418,8.2532377243042,-1.1280542612075806,4.979245662689209,-52.77997970581055,-2.169999122619629,7.90999698638916,6.675027800661449,58.89707663673108,0.02294921875,9.704706421088472,0,,0
1672219958525,8.648415565490723,-1.6645386219024658,4.960085868835449,-26.87999153137207,4.129998683929443,15.049993515014648,9.478537127375018,60.16463456886561,0.009765625,10.107830253988652,0,,0
1672219958631,10.4183349609375,-1.9327808618545532,3.8535866737365723,34.78998947143555,-5.109997749328613,3.709998607635498,9.87042360152253,69.70131808785747,0.009765625,11.275082060466074,0,,0
1672219958738,9.117839813232422,-2.2704787254333496,5.221142768859863,31.569988250732422,-6.159997940063477,-19.10999298095703,12.193761629625858,60.20328093378068,0.072265625,10.749437581344864,0,,0
1672219958844,10.075847625732422,-0.0598754920065403,5.271438121795654,23.799989700317383,15.81999397277832,-6.719997882843018,0.3016826773190328,62.382531047762555,0.062744140625,11.371646772716835,0,,0
1672219958949,8.0137357711792,-0.4239184856414795,5.997128963470459,-0.06999997049570084,13.579995155334473,-3.289998769760132,2.4251748040029484,53.19042646148616,0.052734375,10.018244541697008,0,,0
1672219959056,9.096284866333008,-0.328117698431015,4.42599630355835,2.659999132156372,-9.379996299743652,-6.439997673034668,1.857781610701208,64.05374900855608,0.014892578125,10.121240184513692,0,,0
1672219959163,9.285490989685059,-0.05029541254043579,4.184099197387695,-9.449995994567871,-6.159997940063477,-3.289998769760132,0.28294466383418226,65.74338070907861,-0.00390625,10.184770917483878,0,,0
1672219959269,10.061477661132812,-0.02634521573781967,3.262016773223877,-8.539997100830078,-27.299989700317383,-1.2599996328353882,0.142711425335682,72.03686419145721,-0.01708984375,10.577087511440038,0,,0
1672219959375,8.96695327758789,-0.014370117336511612,4.667893409729004,2.659999132156372,-26.109989166259766,-1.1899995803833008,0.0814454469334282,62.50003531497624,-0.0146484375,10.109188219996101,0,,0
1672219959484,9.103469848632812,-0.6777905821800232,3.444038152694702,2.8699989318847656,8.889996528625488,0.7699997425079346,3.9834869067793015,69.27729320333086,0.0,9.756739319848378,0,,0
1672219959591,8.830437660217285,-0.5292993187904358,4.002077579498291,-0.06999997049570084,-5.879998207092285,4.339998245239258,3.1249616570113137,65.61930304896295,-0.009521484375,9.709449623546055,0,,0
1672219959697,9.034013748168945,-0.42152345180511475,4.277504920959473,-1.9599992036819458,2.72999906539917,12.669995307922363,2.414802728769393,64.66296616183539,0.00732421875,10.00440576802839,0,,0
1672219959803,9.374106407165527,-1.0562036037445068,4.1912841796875,-2.9399991035461426,-5.669997692108154,12.45999526977539,5.872748846791239,65.90996413805213,0.012451171875,10.322611106707614,0,,0
1672219959908,9.244775772094727,-1.01788330078125,3.7769460678100586,0.2099999338388443,-10.989995956420898,13.579995155334473,5.819797785349182,67.7775677568206,0.026123046875,10.038291044269679,0,,0
1672219960012,9.714200019836426,-1.3675562143325806,3.700305223464966,-8.539997100830078,-16.309993743896484,12.949995040893555,7.4946707309084415,69.1473056619409,0.041748046875,10.484662644622944,0,,0
1672219960118,9.594449043273926,-1.362766146659851,3.3745827674865723,-6.159997940063477,-3.149998903274536,13.71999454498291,7.631642751931679,70.62208398377123,0.057373046875,10.261500517423338,0,,0
1672219960229,9.707015037536621,-1.602268099784851,3.4679884910583496,-6.439997673034668,1.7499994039535522,12.599995613098145,8.835382555981047,70.33990807599554,0.045654296875,10.431699198915938,0,,0
1672219960335,9.311836242675781,-1.9471509456634521,2.9362940788269043,-3.9199984073638916,-7.489997386932373,10.499996185302734,11.278261158847615,72.49841407284495,0.05078125,9.956079245012177,0,,0
1672219960440,9.084309577941895,-2.153122663497925,3.2548317909240723,-5.529997825622559,1.4699995517730713,11.339995384216309,12.578153876809635,70.28782477145118,0.057373046875,9.887089951000004,0,,0
1672219960548,9.96088695526123,-2.493215322494507,3.3194971084594727,-1.6799994707107544,9.029996871948242,17.219993591308594,13.358138275680064,71.56918531187405,0.0537109375,10.791406425155413,0,,0
1672219960656,10.626702308654785,-2.931504011154175,4.002077579498291,-0.13999994099140167,14.279994010925293,7.979996681213379,14.47548505424941,69.36333574749733,0.087646484375,11.727623061665346,0,,0
1672219960764,10.267449378967285,-2.6512868404388428,4.054768085479736,-1.81999933719635,7.419997215270996,-9.869996070861816,13.50507489652145,68.45020125310384,0.081298828125,11.3530164664271,0,,0
1672219960871,9.833950996398926,-2.143542528152466,3.9733376502990723,5.039998531341553,2.029999256134033,-20.369993209838867,11.425607279335921,67.99918093627736,0.061279296875,10.820756852127204,0,,0
1672219960976,9.513017654418945,-2.0477418899536133,4.083508491516113,12.45999526977539,5.039998531341553,-27.64999008178711,11.18885837509233,66.76833911276681,0.0546875,10.552999258099165,0,,0
1672219961083,9.287885665893555,-1.7986598014831543,4.162544250488281,12.739995002746582,0.34999987483024597,-33.87998962402344,10.021861984827593,65.8595472178838,0.040283203125,10.335703742922174,0,,0
1672219961189,8.753796577453613,-1.19271981716156,3.6260597705841064,15.679993629455566,6.789997577667236,-32.68998718261719,7.174631329628525,67.49933802079826,0.050048828125,9.549860969749087,0,,0
1672219961295,8.88312816619873,-0.40236330032348633,3.693120241165161,8.539997100830078,-3.849998712539673,-28.559988021850586,2.394979728948096,67.42512301454246,0.025390625,9.628655116799242,0,,0
1672219961401,9.287885665893555,0.3688330352306366,3.7577857971191406,11.059995651245117,6.719997882843018,-29.469987869262695,-2.1082411989598446,67.97223584360306,0.00830078125,10.026056654917662,0,,0
1672219961506,8.806487083435059,1.1591894626617432,3.5542092323303223,9.099996566772461,4.829998016357422,-27.229990005493164,-6.959257526780953,68.02149481313458,0.003662109375,9.567148908020437,0,,0
1672219961612,9.393266677856445,1.2334351539611816,4.2463698387146,0.2099999338388443,2.029999256134033,-16.449993133544922,-6.823132288923787,65.67392545651549,0.014892578125,10.38202667919422,0,,0
1672219961718,8.58375072479248,1.9567310810089111,4.148173809051514,-1.8899993896484375,-6.719997882843018,-3.849998712539673,-11.598726616088989,64.20743145023326,0.009033203125,9.73226176070407,0,,0
1672219961826,8.231682777404785,1.0657837390899658,3.8080811500549316,0.13999994099140167,6.649997711181641,16.519994735717773,-6.702005547403266,65.17413869483133,0.00927734375,9.132249359918664,0,,0
1672219961932,8.54782485961914,0.6753955483436584,3.8176612854003906,-10.849996566772461,6.999997615814209,25.759990692138672,-4.126465548200652,65.9333284810486,0.00537109375,9.385947297289196,0,,0
1672219962037,9.536968231201172,0.29937744140625,4.663103103637695,-16.309993743896484,3.709998607635498,23.44999122619629,-1.6153548726981912,63.94366680470672,0.026123046875,10.62016574496457,0,,0
1672219962142,10.05908203125,-0.550854504108429,4.600832939147949,-4.4799981117248535,14.069994926452637,23.869991302490234,2.8509785641608003,65.4215440196549,0.029296875,11.07502757242897,0,,0
1672219962247,9.589658737182617,-0.20357666909694672,5.1229472160339355,-6.579997539520264,3.779998779296875,6.019997596740723,1.0727039174310635,61.888162970829804,0.009765625,10.87417060442282,0,,0
1672219962351,9.311836242675781,-0.2850073277950287,5.168452262878418,6.719997882843018,7.349997520446777,4.129998683929443,1.5329362065766827,60.96792307317265,0.026611328125,10.653845417545728,0,,0
1672219962455,8.885522842407227,-0.32572266459465027,4.859494686126709,18.199993133544922,-0.6999997496604919,1.3999994993209839,1.842114726600818,61.325739827035676,0.03515625,10.13278343011756,0,,0
1672219962563,8.725056648254395,0.2634521722793579,4.806804180145264,17.429994583129883,-7.90999698638916,4.129998683929443,-1.5149467383419128,61.14877238859716,0.030517578125,9.9650081278737,0,,0
1672219962668,9.000483512878418,0.2730322480201721,4.469106674194336,22.049991607666016,-13.71999454498291,9.729996681213379,-1.5563546994381758,63.593729348609344,0.010009765625,10.052669523036332,0,,0
1672219962775,9.292675971984863,0.6945556998252869,4.157753944396973,27.509990692138672,-3.779998779296875,10.289996147155762,-3.902940955877673,65.89517547435814,0.0107421875,10.204075274252597,0,,0
1672219962883,9.61600399017334,0.7688013315200806,3.7769460678100586,22.399991989135742,-10.219995498657227,11.829995155334473,-4.255866041523045,68.55623728605306,0.008056640625,10.359725374039725,0,,0
1672219962989,9.72138500213623,0.9771680235862732,3.252436637878418,16.869993209838867,-5.319998264312744,13.3699951171875,-5.445201909018484,71.50155460903392,0.0380859375,10.297501045860233,0,,0
1672219963097,9.754915237426758,0.48618897795677185,3.242856502532959,2.9399991035461426,-1.8899993896484375,4.269998550415039,-2.7078160393435597,71.61148651386154,0.052734375,10.291300661611617,0,,0
1672219963204,9.647139549255371,0.13172608613967896,3.422482967376709,-6.439997673034668,11.479995727539062,-1.1899995803833008,-0.7372755304598666,70.46701440356985,0.048828125,10.237091525748927,0,,0
1672219963310,9.20645523071289,-0.25626710057258606,3.9254372119903564,-19.80999183654785,8.119997024536133,-7.699997425079346,1.4667509309965945,66.90762871309825,0.056884765625,10.011670592225617,0,,0
1672219963416,9.13700008392334,-0.4095483720302582,4.090693473815918,-28.559988021850586,-4.269998550415039,-10.779995918273926,2.342673065579448,65.88163185293884,0.04638671875,10.019295060001372,0,,0
1672219963522,9.515413284301758,-0.34727784991264343,4.160149097442627,-35.979984283447266,-20.229991912841797,-11.409996032714844,1.9152610603206488,66.38499857817241,0.0244140625,10.390886987599231,0,,0
1672219963626,9.651928901672363,-0.13651612401008606,3.7386257648468018,-29.889989852905273,-8.259997367858887,-9.519996643066406,0.7556341055812595,68.82637568776042,0.03173828125,10.35160329536586,0,,0
1672219963731,9.620794296264648,-0.5316943526268005,3.8751418590545654,-31.14999008178711,-3.0099987983703613,-6.929997444152832,2.934581456037066,68.06100867549738,0.028076171875,10.385523877178777,0,,0
1672219963839,9.946516990661621,-1.0490186214447021,5.185217380523682,-9.239996910095215,37.589988708496094,-2.72999906539917,5.342815518189134,62.46652467107899,0.035400390625,11.265882992333221,0,,0
1672219963952,8.59812068939209,-0.49576905369758606,4.655918121337891,-3.6399986743927,26.599990844726562,-10.639996528625488,2.902614863042747,61.56427073530584,0.03955078125,9.79035443161069,0,,0
1672219964058,8.468789100646973,-0.2778222858905792,5.5420756340026855,-13.579995155334473,0.0,-3.0099987983703613,1.5723763417454448,56.79879055484664,0.0458984375,10.124829696680369,0,,0
1672219964165,8.789722442626953,0.10538086295127869,3.992497682571411,-14.629995346069336,-39.759986877441406,2.029999256134033,-0.6254043631742797,65.57133948796118,0.02783203125,9.654551439089978,0,,0
1672219964270,10.174043655395508,-0.8717871308326721,4.145779132843018,0.2099999338388443,-8.609996795654297,11.409996032714844,4.537042085453024,67.82979824904098,0.030517578125,11.02082854061779,0,,0
1672219964376,9.19687557220459,-0.65623539686203,3.6691701412200928,6.369997501373291,-6.719997882843018,1.81999933719635,3.7917018903050344,68.25006006485859,0.03369140625,9.923506170297333,0,,0
1672219964482,9.812395095825195,-0.5748047232627869,4.026028156280518,0.48999980092048645,-4.829998016357422,6.509997367858887,3.102112135175266,67.69164510858661,0.00927734375,10.621788959569054,0,,0
1672219964588,9.292675971984863,-0.031135255470871925,3.999682903289795,19.739992141723633,43.959983825683594,12.529995918273926,0.1763303359207513,66.71235700401219,0.01220703125,10.116929348933239,0,,0
1672219964697,7.82452917098999,-1.460961937904358,3.264411687850952,-27.299989700317383,-33.739986419677734,3.219998836517334,9.77719405806984,67.35398968787398,0.031005859375,8.603141879537757,0,,0
1672219964805,9.963281631469727,-1.4753321409225464,4.962480545043945,-6.719997882843018,-37.02998733520508,-6.789997577667236,7.550306501716696,63.5231645606758,0.03173828125,11.228080822382818,0,,0
1672219964910,10.368040084838867,-0.3376977741718292,4.449946403503418,-4.689998149871826,1.2599996328353882,-7.1399970054626465,1.7143912025433494,66.77106698960847,0.044677734375,11.287706497847964,0,,0
1672219965015,8.722661972045898,-0.15088623762130737,3.501518726348877,17.56999397277832,57.609981536865234,22.74999237060547,0.9196928908438696,68.12810370961702,0.055908203125,9.400437858219744,0,,0
1672219965123,9.352551460266113,-1.0394384860992432,3.173401117324829,-20.509992599487305,-19.319992065429688,9.449995994567871,6.008037431041204,71.25748388999061,0.037841796875,9.930816977205277,0,,0
1672219965230,8.540639877319336,-1.9926563501358032,3.970942497253418,-5.109997749328613,20.649991989135742,13.789995193481445,11.945634176389296,65.06408246764731,0.035400390625,9.627127980882305,0,,0
1672219965336,7.774233818054199,-1.410666584968567,3.870351791381836,-19.039993286132812,3.4999988079071045,8.399996757507324,9.226389296501639,63.533880710924315,0.024658203125,8.798199512444409,0,,0
1672219965443,9.484277725219727,-1.9423608779907227,5.4223246574401855,-0.9799996018409729,10.499996185302734,4.4799981117248535,10.081406159657744,60.242654034958925,0.045654296875,11.096210814513745,0,,0
1672219965550,13.565391540527344,-2.4069948196411133,7.3383402824401855,120.67994689941406,60.129981994628906,10.989995956420898,8.870287874577743,61.588365121639626,0.064453125,15.609763284895587,0,,0
1672219965657,7.532336711883545,0.0,3.551814079284668,93.51996612548828,-13.929994583129883,-14.489995002746582,-0.0,64.75414781120556,0.11083984375,8.327753574343648,0,,0
1672219965765,4.533771991729736,-0.38080811500549316,2.6872119903564453,-30.379987716674805,-25.82999038696289,-1.1199995279312134,4.132742528038261,59.344353806144085,0.139892578125,5.284052571139173,0,,0
1672219965871,8.375383377075195,-1.2885205745697021,9.12263011932373,-71.53997802734375,-56.69997787475586,3.219998836517334,5.939976939744513,42.554688955241915,0.12060546875,12.451092814611473,0,,0
1672219965978,15.287410736083984,0.09580078721046448,8.016130447387695,22.889989852905273,6.369997501373291,-17.289993286132812,-0.3179844499262936,62.32921115000868,0.08251953125,17.26187858125824,0,,0
1672219966083,14.267131805419922,-0.8741821646690369,5.9228835105896,-11.129995346069336,33.52998733520508,10.91999626159668,3.2389007916032337,67.45461700443346,0.050537109375,15.472420414733577,0,,0
1672219966196,7.04614782333374,-0.6945556998252869,3.9350173473358154,-30.02998924255371,20.29999351501465,-5.45999813079834,4.918830461604082,60.818229693978644,0.007080078125,8.100306678902003,0,,0
1672219966307,2.373464345932007,-0.20118165016174316,0.9747729897499084,-58.519981384277344,-30.93998908996582,-2.3099992275238037,4.48326541315569,67.6722261982383,-0.017578125,2.5737112190994207,0,,0
1672219966413,13.119917869567871,-1.8393750190734863,5.783972263336182,-21.769990921020508,-11.26999568939209,9.239996910095215,7.310212265494946,66.2095097670036,-0.011962890625,14.45579055285598,0,,0
1672219966518,15.373631477355957,-2.0357666015625,7.917934894561768,90.92996978759766,45.77997970581055,14.839994430541992,6.714134570456607,62.750016597178096,0.00537109375,17.41225383033759,0,,0
1672219966624,8.686736106872559,-1.4489868879318237,4.038002967834473,66.42997741699219,20.229991912841797,-3.779998779296875,8.601399054920975,65.06878196017351,0.047119140625,9.688364937391746,0,,0
1672219966731,3.3745827674865723,1.3220508098602295,0.7616162300109863,38.28998565673828,-14.489995002746582,7.489997386932373,-20.9146153754636,77.28188568931624,0.069091796875,3.7034695192866876,0,,0
1672219966837,7.1203932762146,-0.7352710366249084,3.841611385345459,-42.27998352050781,-47.73998260498047,10.4299955368042,5.192750172155337,61.65214626265288,0.124755859375,8.12395235961397,0,,0
1672219966943,16.13285255432129,-0.8622070550918579,8.109536170959473,-71.04997253417969,13.439995765686035,1.9599992036819458,2.733841478505461,63.31259612970724,0.12841796875,18.076971799873483,0,,0
1672219967049,12.403806686401367,-0.5005590915679932,3.273991823196411,-23.589990615844727,32.339988708496094,-13.439995765686035,2.234487109185784,75.21397020146836,0.119140625,12.83838004485471,0,,0
1672219967156,2.1124072074890137,-0.6442602872848511,0.7831714153289795,-32.40998840332031,-22.049991607666016,-16.519994735717773,15.958810325729175,69.65782304016892,0.058837890625,2.343222779381484,0,,0
1672219967261,4.991220951080322,-0.15088623762130737,5.043911457061768,-40.389984130859375,-42.979984283447266,5.5999979972839355,1.2181274382563614,44.69916536869291,0.009521484375,7.097611994599707,0,,0
1672219967367,20.063079833984375,-2.543510913848877,6.832991123199463,-0.34999987483024597,6.229997634887695,9.659996032714844,6.843152622644585,71.19242104973107,0.030029296875,21.346812124610587,0,,0
1672219967474,12.030183792114258,-1.3100757598876953,5.580395698547363,-23.659990310668945,42.76998519897461,8.46999740600586,5.641844244145991,65.11500811854982,0.027587890625,13.326006030355074,0,,0
1672219967579,3.0488600730895996,-2.1315674781799316,1.5783178806304932,-30.449987411499023,-24.07999038696289,5.109997749328613,31.835111677566754,62.63053829701912,-0.011474609375,4.041066071178768,0,,0
1672219967686,4.459526538848877,-0.8622070550918579,0.7688013315200806,53.269981384277344,5.319998264312744,12.389995574951172,10.787269327622042,80.21862309968841,-0.008544921875,4.606716123649759,0,,0
1672219967794,23.059249877929688,-1.1999047994613647,4.859494686126709,4.899998188018799,-56.06998062133789,-22.189992904663086,2.914832532953561,78.09964663280128,0.004638671875,23.596259556655678,0,,0
1672219967901,15.385605812072754,-1.1591894626617432,5.580395698547363,-16.099994659423828,29.18998908996582,-8.329997062683105,4.051355548189601,70.06417180331981,0.012939453125,16.407358183668656,0,,0
1672219968006,3.2548317909240723,-1.6932789087295532,2.98419451713562,-9.029996871948242,16.58999252319336,-21.209991455078125,20.979750180313882,47.4838265121541,0.0048828125,4.729327686475177,0,,0
1672219968112,1.3196557760238647,-0.9148975014686584,1.19271981716156,-34.579986572265625,-13.089995384216309,11.75999641418457,27.218515869883202,47.892368409199875,-0.01611328125,2.0002773226821944,0,,0
1672219968218,12.818144798278809,-0.5077441334724426,4.174519062042236,40.94998550415039,-31.219987869262695,-8.81999683380127,2.1569857179266823,71.96098774922743,-0.0244140625,13.490339120054461,0,,0
1672219968324,18.915864944458008,-1.4274317026138306,6.9886674880981445,3.9899983406066895,25.82999038696289,5.949997425079346,4.048955821186901,69.72271320979215,-0.007080078125,20.216057506887992,0,,0
1672219968428,7.374265670776367,-0.9244775772094727,3.182981014251709,-14.419994354248047,10.35999584197998,-0.13999994099140167,6.56590546278878,66.6533483235849,-0.024169921875,8.084913178942664,0,,0
1672219968533,3.032094955444336,0.7448511123657227,-0.1245410218834877,97.50996398925781,-4.5499982833862305,-25.19999122619629,-13.790547892966615,92.35205907495582,-0.01513671875,3.1247261423291524,0,,0
1672219968639,7.800579071044922,0.3305127024650574,4.509821891784668,9.589996337890625,9.869996070861816,16.449993133544922,-2.100735921475763,59.96610242421493,-0.003662109375,9.016471925633388,0,,0
1672219968747,16.341218948364258,-0.7735913395881653,7.606582164764404,-15.399994850158691,5.45999813079834,22.74999237060547,2.4575135815244726,65.03875775136582,0.031494140625,18.04145150780216,0,,0
1672219968853,6.698869705200195,-0.9268726110458374,3.0273048877716064,6.369997501373291,6.719997882843018,-19.949993133544922,7.186238079004717,65.68118097801185,0.03564453125,7.409353753727901,0,,0
1672219968962,3.400927782058716,-0.09580078721046448,1.0394384860992432,-17.49999237060547,-36.53998565673828,-10.4299955368042,1.5431116689030473,73.00507655205689,0.00390625,3.557515978318755,0,,0
1672219969068,15.742464065551758,-1.590293049812317,7.802973747253418,-5.45999813079834,4.619998455047607,19.10999298095703,5.171798334350121,63.63403796632472,0.010986328125,17.64201253088195,0,,0
1672219969173,8.84720230102539,-1.3675562143325806,3.7865259647369385,4.339998245239258,-2.4499990940093994,-8.749996185302734,8.087958683833229,66.82949469673487,-0.015380859375,9.720132583265293,0,,0
1672219969281,3.7673659324645996,-0.5101391673088074,1.3292359113693237,-4.059998512268066,-18.199993133544922,-8.889996528625488,7.276993865658524,70.56568133622831,-0.02783203125,4.027425498651865,0,,0
1672219969386,17.162710189819336,-2.823728084564209,6.241421222686768,-56.97998046875,-24.989990234375,22.189992904663086,8.789474090135029,70.01560890845,-0.027099609375,18.479377701489028,0,,0
1672219969491,12.157119750976562,-1.3555811643600464,3.2165112495422363,-12.949995040893555,-47.17998123168945,-13.229995727539062,6.152497859321553,75.18034643360829,-0.0029296875,12.648284688098379,0,,0
1672219969596,5.544470310211182,-0.9460327625274658,0.42152345180511475,27.719989776611328,23.37999153137207,-0.6299998164176941,9.655583867484086,85.65239921390378,-0.003173828125,5.640373305820309,0,,0
1672219969703,10.430310249328613,-1.8848804235458374,4.540957450866699,6.719997882843018,13.019994735717773,17.63999366760254,9.40788396408518,66.47353647678116,-0.005615234375,11.531020799517172,0,,0
1672219969810,10.231523513793945,-1.0969189405441284,3.381767749786377,4.5499982833862305,17.289993286132812,-4.059998512268066,5.812319884175229,71.71002125774423,0.005126953125,10.831604575912937,0,,0
1672219969918,8.660390853881836,-0.9412426948547363,3.0057497024536133,-6.229997634887695,12.669995307922363,6.439997673034668,5.862326702647066,70.85971804763354,-0.00927734375,9.215358854999492,0,,0
1672219970028,10.133328437805176,-1.1783496141433716,3.640429735183716,-0.13999994099140167,1.3999994993209839,2.9399991035461426,6.245407800233088,70.2390167361431,-0.014404296875,10.831693390158009,0,,0
1672219970134,9.172924995422363,-1.3747413158416748,3.2069313526153564,3.849998712539673,5.039998531341553,0.7699997425079346,8.052357191716942,70.72994629403627,-0.00830078125,9.814116127166717,0,,0
1672219970242,9.912985801696777,-1.3819262981414795,3.9158570766448975,9.799996376037598,4.339998245239258,-0.6299998164176941,7.387541827428187,68.44484179181104,-0.0234375,10.7476017996038,0,,0
1672219970349,8.377779006958008,-0.8909472823143005,3.302731990814209,2.8699989318847656,1.9599992036819458,-4.829998016357422,5.650228106430425,68.48438925451985,-0.011962890625,9.049254486002543,0,,0
1672219970456,6.212680816650391,-0.44068360328674316,0.6418652534484863,-11.409996032714844,-21.62999153137207,-4.269998550415039,4.035950068670911,84.10139489573537,-0.0419921875,6.261277503143112,0,,0
1672219970563,17.550703048706055,-1.7292041778564453,6.346802234649658,17.779993057250977,13.3699951171875,16.309993743896484,5.2935661221496595,70.11865846584293,-0.046875,18.742977970384803,0,,0
1672219970669,9.340576171875,-1.0993139743804932,3.9158570766448975,6.0899977684021,35.3499870300293,3.5699985027313232,6.194632967808861,67.2550687595398,-0.023681640625,10.187678395079871,0,,0
1672219970776,2.366279363632202,-0.7999365329742432,-1.4346168041229248,-17.849994659423828,-5.809998035430908,-5.17999792098999,16.123408771145755,121.22739988191492,-0.049560546875,2.880503750771789,0,,0
1672219970882,16.14961814880371,-1.8106348514556885,7.970625400543213,14.979994773864746,-32.40998840332031,20.08999252319336,5.741107301301171,63.731410382489,-0.04052734375,18.10026061119731,0,,0
1672219970986,10.23870849609375,-2.1579127311706543,3.3865578174591064,-12.389995574951172,-45.14998245239258,-23.589990615844727,11.315367228205362,71.69783747675123,-0.0283203125,10.998023134833101,0,,0
1672219971091,5.1492919921875,-0.65623539686203,1.3172607421875,7.489997386932373,21.139991760253906,8.189996719360352,7.038462093565286,75.65066804349635,-0.03955078125,5.355467185952066,0,,0
1672219971199,14.681469917297363,-3.1757960319519043,7.721543312072754,5.669997692108154,57.04997634887695,33.52998733520508,10.838091785760033,62.2584112806663,-0.062255859375,16.889448495711292,0,,0
1672219971305,3.690725326538086,-2.2680835723876953,1.5495777130126953,46.549983978271484,31.919986724853516,-16.519994735717773,29.536761429521587,67.22454820911474,-0.032958984375,4.600744245874818,0,,0
1672219971411,5.156477451324463,1.97110116481781,0.014370117336511612,42.27998352050781,-48.43998336791992,-6.369997501373291,-20.91964667611671,89.84032812681409,0.002197265625,5.520390023199088,0,,0
1672219971517,18.609302520751953,-1.97110116481781,8.693921089172363,-33.38998794555664,28.629989624023438,31.919986724853516,5.481556024170315,64.95889071053311,0.04736328125,20.63433168327889,0,,0
1672219971623,9.934541702270508,-2.1698877811431885,6.854546070098877,-50.39998245239258,14.629995346069336,3.289998769760132,10.191673029166704,55.39544862862014,0.114501953125,12.263292120960598,0,,0
1672219971728,2.4285500049591064,1.5016772747039795,-1.695673942565918,-26.80998992919922,-41.92998504638672,-20.92999267578125,-26.884502567714637,124.92370226880598,0.12060546875,3.3208733615490806,0,,0
1672219971832,5.470224857330322,-1.9232007265090942,4.323010444641113,68.10997772216797,39.68998718261719,27.509990692138672,15.420871699670846,51.681380484091825,0.166748046875,7.232598449290255,0,,0
1672219971937,12.454102516174316,-1.2502002716064453,4.354145526885986,22.329992294311523,-27.789989471435547,10.289996147155762,5.413196461149097,70.72958943134155,0.1826171875,13.252405573019772,0,,0
1672219972042,7.319180011749268,-0.2490820437669754,3.022514820098877,-12.039995193481445,-18.059993743896484,-13.579995155334473,1.8016372901556734,67.56142471911673,0.134521484375,7.922627957100755,0,,0
1672219972146,10.542876243591309,-1.3172607421875,6.976692199707031,-31.289987564086914,-45.569984436035156,5.389997959136963,5.9484759642472795,56.50561359928762,0.125244140625,12.710690358908256,0,,0
1672219972250,8.236472129821777,-2.375859498977661,5.680986404418945,61.809974670410156,5.809998035430908,4.409998416900635,13.357600598876864,55.404596377485575,0.13525390625,10.283860560674972,0,,0
1672219972357,10.233919143676758,1.1663745641708374,2.605781316757202,75.73997497558594,-3.289998769760132,1.4699995517730713,-6.302624029873574,75.71478369444355,0.146484375,10.624670674144175,0,,0
1672219972462,8.58375072479248,-0.9580078721046448,6.136040210723877,-69.43997192382812,-14.139994621276855,-7.839996814727783,5.18791693760906,54.44115801684057,0.183837890625,10.59478858005247,0,,0
1672219972566,10.286609649658203,-1.4130616188049316,2.953059196472168,-67.1999740600586,-18.339994430541992,-8.189996719360352,7.5215946884263865,73.9823928095652,0.136962890625,10.794982160283995,0,,0
1672219972670,9.323811531066895,-0.6873706579208374,1.6190332174301147,-28.069988250732422,-30.72998809814453,-3.709998607635498,4.154390714485636,80.14910092675171,0.101806640625,9.488266883228391,0,,0
1672219972773,6.514453411102295,-0.53648442029953,3.8248462677001953,-15.399994850158691,-22.46999168395996,6.649997711181641,4.062156077943859,59.58142704069994,0.079345703125,7.573332671300434,0,,0
1672219972878,15.562837600708008,-0.12214600294828415,5.66901159286499,-1.9599992036819458,36.74998474121094,0.34999987483024597,0.4225224256125738,69.985040972991,0.09912109375,16.563650753142703,0,,0
1672219972982,1.7962647676467896,-1.7747095823287964,1.0106983184814453,-47.80998229980469,-3.4999988079071045,-26.599990844726562,40.730270394479305,60.6349927546987,0.06201171875,2.7198662298135265,0,,0
1672219973086,9.208850860595703,-0.1939965933561325,3.8655617237091064,38.149986267089844,-5.039998531341553,-1.7499994039535522,1.1127957679696532,67.22899616807467,0.047607421875,9.989150929420024,0,,0
1672219973189,21.078567504882812,-3.8679566383361816,11.108100891113281,-2.3799991607666016,-18.54999351501465,5.529997825622559,9.220916387360054,62.211416636338875,0.06103515625,24.13828912787943,0,,0
1672219973294,0.77598637342453,-3.0656251907348633,1.9878662824630737,1.2599996328353882,29.259990692138672,7.069997310638428,55.15855006283842,21.323757155294338,0.08740234375,3.7352141864640482,0,,0
1672219973398,8.171807289123535,1.4513819217681885,1.0202783346176147,-81.82997131347656,-5.45999813079834,-21.909992218017578,-9.9951721408004,82.88325139874253,0.0751953125,8.362171472380734,0,,0
1672219973502,19.0092716217041,1.2861255407333374,11.464959144592285,10.079997062683105,-14.769993782043457,-3.0799989700317383,-3.315785674611733,58.90478836314043,0.0859375,22.236272499711408,0,,0
1672219973606,3.7050952911376953,-3.2883620262145996,2.452500104904175,19.459993362426758,19.039993286132812,1.1199995279312134,36.50440386880531,56.498376056476474,0.0966796875,5.527731243142696,0,,0
1672219973710,4.31103515625,2.632126569747925,0.3305127024650574,4.4799981117248535,16.239994049072266,-19.80999183654785,-31.3317632234421,85.61589974092996,0.099365234375,5.061852728407573,0,,0
1672219973816,22.029390335083008,1.446591854095459,10.727293014526367,23.729991912841797,15.399994850158691,28.979990005493164,-3.3787475495926143,64.0360624678026,0.107421875,24.545090791180428,0,,0
1672219973925,4.198469638824463,-0.8574170470237732,1.635798454284668,26.319990158081055,-0.6999997496604919,-17.989992141723633,10.773911337258667,68.71322692762168,0.11181640625,4.5867360817576905,0,,0
1672219974031,2.26568865776062,-0.09101074934005737,-1.2933106422424316,-27.369991302490234,-55.15998077392578,2.029999256134033,1.9979901503288224,119.7187843655213,0.068603515625,2.6104176807051567,0,,0
1672219974136,21.246219635009766,-3.2787818908691406,6.033054351806641,-22.399991989135742,-22.889989852905273,-7.1399970054626465,8.444114149867943,74.14762979261762,0.074951171875,22.328233344329302,0,,0
1672219974242,10.423125267028809,-1.302890658378601,5.479804992675781,1.7499994039535522,20.369993209838867,-8.189996719360352,6.313596867954512,62.26751018912247,0.08203125,11.847671803253963,0,,0
1672219974345,3.2284865379333496,-0.44547364115715027,-0.6370752453804016,-7.769996643066406,-40.389984130859375,-11.339995384216309,7.709365008791152,101.16272723351447,0.06982421875,3.320758491498467,0,,0
1672219974449,14.693445205688477,-0.7544311881065369,5.700146675109863,9.449995994567871,0.6299998164176941,11.689995765686035,2.7405939444309833,68.79683139629763,0.068603515625,15.778408365482354,0,,0
1672219974556,9.213640213012695,-1.041833519935608,3.623664617538452,1.5399994850158691,11.75999641418457,1.0499995946884155,6.007082067657572,68.53060929818517,0.0693359375,9.95527640593199,0,,0
1672219974668,7.297624588012695,-1.1448193788528442,1.4992822408676147,-2.3799991607666016,-7.419997215270996,13.299995422363281,8.73608423841539,78.39024376281998,0.051025390625,7.537491842486165,0,,0
1672219974776,11.814631462097168,-1.7986598014831543,4.691843509674072,-7.209997177124023,-16.02999496459961,1.9599992036819458,8.053397231635431,68.34091182225336,0.044921875,12.83877288473935,0,,0
1672219974880,9.069939613342285,-0.89573734998703,2.7111623287200928,12.45999526977539,24.989990234375,1.7499994039535522,5.40534926117626,73.35768213503977,0.03125,9.508761810167943,0,,0
1672219974987,8.600515365600586,-1.3555811643600464,3.671565055847168,-7.55999755859375,2.659999132156372,4.759998321533203,8.248129282045696,66.88233565693216,0.033447265625,9.449172175720873,0,,0
1672219975093,6.306086540222168,-0.8382568955421448,1.7507593631744385,-8.399996757507324,1.2599996328353882,-4.969998359680176,7.2989091648869735,74.48374521041461,0.04736328125,6.598072477886107,0,,0
1672219975199,6.476132869720459,-0.7735913395881653,2.2680835723876953,-10.149996757507324,-0.7699997425079346,-7.209997177124023,6.432286002067572,70.69862809015308,0.05517578125,6.905283744951722,0,,0
1672219975304,17.46687889099121,-0.8885523080825806,5.520520210266113,-6.789997577667236,-1.6799994707107544,-8.959996223449707,2.7769950471798603,72.46052184037822,0.0439453125,18.340052529606066,0,,0
1672219975409,15.756834030151367,-2.1579127311706543,6.373147010803223,6.929997444152832,22.889989852905273,11.619996070861816,7.235513542062352,67.97820655256137,0.063720703125,17.13334202163707,0,,0
1672219975517,8.842412948608398,-0.6825805902481079,2.761457681655884,-8.049997329711914,-37.589988708496094,-13.859994888305664,4.2141847275658275,72.65658031145018,0.056640625,9.288693747964631,0,,0
1672219975622,2.735112428665161,-0.29698243737220764,0.7472461462020874,-0.48999980092048645,3.0099987983703613,-9.729996681213379,5.979512928782966,74.71941245778406,0.0185546875,2.8508622149377976,0,,0
1672219975727,2.9602441787719727,-0.37122803926467896,0.41194337606430054,-6.929997444152832,5.319998264312744,-6.649997711181641,7.08031226408881,82.07767822469462,0.0029296875,3.011735911425984,0,,0
1672219975833,20.259471893310547,-0.9436377286911011,5.281018257141113,-12.879995346069336,-2.589998960494995,14.839994430541992,2.5806603916503037,75.38988072206467,0.004150390625,20.957714746391293,0,,0
1672219975939,14.588064193725586,-1.73159921169281,6.279741287231445,5.879998207092285,24.91999053955078,10.709996223449707,6.2222176750001985,66.70951501293722,0.039306640625,15.97639519368349,0,,0
1672219976048,8.737031936645508,-1.063388705253601,3.8440065383911133,17.63999366760254,4.339998245239258,3.149998903274536,6.356814300100634,66.2520852433448,0.029541015625,9.604317199448284,0,,0
1672219976154,3.939807415008545,-1.171164631843567,2.332749128341675,28.559988021850586,38.989986419677734,14.5599946975708,14.348024049656333,59.37034160696424,0.052734375,4.726037193888389,0,,0
1672219976259,6.215075969696045,0.009580078534781933,4.114643573760986,98.20996856689453,3.219998836517334,11.199995994567871,-0.07364110013254241,56.493753342115944,0.068359375,7.453693904775709,0,,0
1672219976365,10.921289443969727,1.6741187572479248,5.582790851593018,35.069984436035156,5.809998035430908,-6.369997501373291,-7.772286403333997,62.92459861037353,0.11572265625,12.379207988597841,0,,0
1672219976469,7.831714153289795,0.3688330352306366,3.4152979850769043,-40.459983825683594,0.2099999338388443,3.849998712539673,-2.4718461628940287,66.43867605684989,0.1201171875,8.551961454168715,0,,0
1672219976575,9.994417190551758,-2.5075855255126953,4.461921691894531,34.43998718261719,-2.099999189376831,14.349995613098145,12.903994203163638,65.94203732461136,0.129638671875,11.228762413158282,0,,0
1672219976685,10.21475887298584,-0.8669971227645874,4.437971591949463,57.819976806640625,-1.3999994993209839,3.9899983406066895,4.451330597464396,66.51666342909897,0.163330078125,11.170880658886096,0,,0
1672219976796,8.380173683166504,-0.9867480993270874,3.690725326538086,-30.72998809814453,-2.3799991607666016,-5.809998035430908,6.150465028615887,66.23075289257227,0.184326171875,9.209909674231975,0,,0
1672219976902,10.75363826751709,-0.24668702483177185,1.6741187572479248,-6.019997596740723,-47.109981536865234,-7.209997177124023,1.2984915512577822,81.15126376415022,0.203369140625,10.885966382926123,0,,0
1672219977008,7.889194488525391,-1.829795002937317,3.879931688308716,-17.149993896484375,-4.269998550415039,-11.059995651245117,11.757042476708929,63.81188953543559,0.135009765625,8.98005619896089,0,,0
1672219977116,9.426796913146973,-0.4191284477710724,4.435576438903809,-21.979991912841797,-8.81999683380127,-2.5199992656707764,2.3037908627244255,64.80167940695848,0.111572265625,10.42662491138944,0,,0
1672219977223,9.604028701782227,-0.9460327625274658,4.05237340927124,-16.58999252319336,-8.889996528625488,1.9599992036819458,5.185702907197196,67.12292254555281,0.078125,10.466808278582386,0,,0
1672219977328,9.527388572692871,-0.8885523080825806,4.133803844451904,-3.6399986743927,0.27999988198280334,2.2399990558624268,4.890127388683753,66.54463638873155,0.07958984375,10.423482740604646,0,,0
1672219977434,9.388477325439453,-0.9125024676322937,3.7242555618286133,-0.48999980092048645,1.0499995946884155,1.5399994850158691,5.162383032790467,68.36258129630278,0.038818359375,10.141313856376655,0,,0
1672219977540,9.501043319702148,-0.8406518697738647,3.8679566383361816,-3.359998941421509,-2.4499990940093994,0.9799996018409729,4.684872468754974,67.84833804875018,0.0205078125,10.292599685456539,0,,0
1672219977646,9.63037395477295,-0.8310717940330505,3.693120241165161,-0.48999980092048645,-2.5199992656707764,-0.48999980092048645,4.606672472389687,69.0188460444844,0.009033203125,10.347652871608629,0,,0
1672219977753,9.783655166625977,-0.6897656321525574,3.5182838439941406,-1.9599992036819458,-2.72999906539917,-3.149998903274536,3.795586971210808,70.22099283146814,-0.010986328125,10.419885136298584,0,,0
1672219977857,10.121353149414062,-0.9747729897499084,3.9086720943450928,-6.999997615814209,-2.2399990558624268,6.0899977684021,5.133782770444605,68.88439737207315,0.004638671875,10.893561837058254,0,,0
1672219977966,9.084309577941895,-1.01309335231781,3.752995729446411,-8.049997329711914,1.9599992036819458,3.6399986743927,5.884789254142444,67.55303939996223,0.00244140625,9.881093846009174,0,,0
1672219978073,8.380173683166504,-0.8981323838233948,2.4812402725219727,-4.899998188018799,11.129995346069336,4.129998683929443,5.867327863949794,73.50679037064954,-0.0244140625,8.785812769965773,0,,0
1672219978180,6.849756240844727,-0.5915698409080505,2.014211416244507,-12.879995346069336,-27.43998908996582,-11.549995422363281,4.736461574761683,73.61371458846031,-0.0048828125,7.164228015982808,0,,0
1672219978286,8.030500411987305,-1.3891113996505737,3.599714517593384,-10.849996566772461,-22.119991302490234,-12.669995307922363,8.969933139958709,65.8554382422153,-0.02490234375,8.909349693200959,0,,0
1672219978392,9.659113883972168,-1.3531861305236816,2.974614381790161,-0.13999994099140167,30.659988403320312,-3.0099987983703613,7.625926368158152,72.88329532296082,-0.00244140625,10.196956626745964,0,,0
1672219978500,9.44595718383789,-0.8885523080825806,3.7362306118011475,-10.00999641418457,13.509994506835938,-9.099996566772461,4.999104626679018,68.41934338260361,-0.02392578125,10.196815753344644,0,,0
1672219978607,9.824370384216309,-0.7807763814926147,3.791316032409668,-2.8699989318847656,12.249995231628418,-3.5699985027313232,4.240378403756642,68.89793408759836,-0.011474609375,10.559448018801445,0,,0
1672219978712,9.489068031311035,-1.1280542612075806,4.145779132843018,-3.779998779296875,11.199995994567871,-4.4799981117248535,6.2170665090130734,66.39945630900135,-0.0283203125,10.41644868164742,0,,0
1672219978819,9.738149642944336,-0.8190967440605164,4.7636942863464355,-4.059998512268066,4.619998455047607,-5.879998207092285,4.320853354162834,63.93310973438388,-0.0390625,10.871764401341537,1,,0
1672219978923,9.479487419128418,-0.7472461462020874,4.596042633056641,-2.72999906539917,5.809998035430908,-3.0099987983703613,4.0572224071287675,64.13399797687579,-0.01806640625,10.561376161149742,1,,0
1672219979028,9.4507474899292,-0.8717871308326721,4.380490779876709,-0.13999994099140167,9.659996032714844,-1.81999933719635,4.784060153896857,65.13193128751045,-0.008056640625,10.453006284915043,1,,0
1672219979135,9.129815101623535,-0.6945556998252869,4.564907550811768,0.6999997496604919,20.649991989135742,-2.2399990558624268,3.8926360907143795,63.434948895407004,0.0263671875,10.231046493758654,1,,0
1672219979242,8.935818672180176,-0.5795947313308716,5.017566204071045,-1.1899995803833008,4.689998149871826,-2.3099992275238037,3.2369700091011144,60.685282427397894,0.04150390625,10.26453876250201,1,,0
1672219979346,8.954977989196777,-0.5077441334724426,4.847519874572754,-2.099999189376831,3.6399986743927,0.13999994099140167,2.8545614869224614,61.5723751144571,0.053466796875,10.195483501357465,1,,0
1672219979451,9.338181495666504,-0.7424560785293579,5.051096439361572,1.8899993896484375,8.749996185302734,-0.6999997496604919,4.000328480064206,61.59069292929632,0.052001953125,10.64267118322673,1,,0
1672219979554,10.617121696472168,-0.59635990858078,5.999524116516113,-3.4299986362457275,1.0499995946884155,-2.659999132156372,2.799652367646997,60.53007335919885,0.06005859375,12.209553959212473,1,,0
1672219979658,11.898457527160645,-0.7807763814926147,6.818620681762695,-1.7499994039535522,0.06999997049570084,-0.9799996018409729,3.258551198658751,60.184374837532616,0.0712890625,13.735956147473114,1,,0
1672219979762,11.294912338256836,-0.8190967440605164,6.490503311157227,1.1899995803833008,-4.969998359680176,0.27999988198280334,3.5978529687478686,60.11662149460397,0.0673828125,13.052685449254493,1,,0
1672219979866,10.015972137451172,-0.6418652534484863,5.685776710510254,-0.2099999338388443,0.13999994099140167,0.6999997496604919,3.189829912286254,60.41768015552086,0.05224609375,11.535152606860626,1,,0
1672219979969,9.508228302001953,-0.5771997570991516,5.400769233703613,3.0099987983703613,-10.709996223449707,2.099999189376831,3.021525330189446,60.40298966743842,0.052001953125,10.950245354251464,1,,0
1672219980072,8.80169677734375,-0.6849756240844727,4.749323844909668,7.699997425079346,-5.249998092651367,3.6399986743927,3.9179938519280655,61.64906253986296,0.050048828125,10.024726168316061,0,,0
1672219980189,9.26633071899414,-0.9604028463363647,5.228327751159668,7.209997177124023,-0.6999997496604919,6.579997539520264,5.157946912647351,60.56707079917894,0.060546875,10.682821242282946,0,,0
1672219980293,9.43637752532959,-0.3903881907463074,4.720583915710449,10.149996757507324,-8.609996795654297,2.9399991035461426,2.1189310923116906,63.42331576800011,0.057861328125,10.558481720649223,0,,0
1672219980398,8.507109642028809,-0.3592529594898224,4.157753944396973,1.7499994039535522,-20.99999237060547,1.1899995803833008,2.1728042926619096,63.95344908540377,0.0732421875,9.475594704953895,0,,0
1672219980501,7.453300952911377,-0.20597168803215027,3.3099172115325928,2.9399991035461426,-9.589996337890625,4.059998512268066,1.4467828662617355,66.0545950393874,0.081298828125,8.157798194251935,0,,0
1672219980605,6.349196910858154,-0.4430786371231079,2.402204751968384,-3.4299986362457275,-25.19999122619629,1.609999418258667,3.734375754093,69.27597327529993,0.097900390625,6.802882312807204,0,,0
1672219980708,7.343130111694336,-0.7113208174705505,2.5483009815216064,12.669995307922363,-10.079997062683105,5.45999813079834,5.228851505414846,70.86159051914571,0.087646484375,7.80521460531759,0,,0
1672219980812,9.654324531555176,-0.7328760027885437,3.003354549407959,7.979996681213379,-5.879998207092285,6.0899977684021,4.14584737582752,72.71965470774886,0.076416015625,10.137219931791007,0,,0
1672219980916,9.548943519592285,-0.8143066763877869,2.69439697265625,-1.6799994707107544,-13.159995079040527,0.34999987483024597,4.6918909940121205,74.24268377770386,0.087646484375,9.95515910218578,0,,0
1672219981021,9.683064460754395,-0.8262817859649658,3.0752053260803223,-5.17999792098999,-4.619998455047607,0.0,4.649614652407857,72.38088274904312,0.08203125,10.193201986544514,0,,0
1672219981125,11.120076179504395,-0.95561283826828,2.9506642818450928,-0.48999980092048645,6.369997501373291,-0.5599997639656067,4.748170620444176,75.1392677070392,0.073486328125,11.544509943639904,0,,0
1672219981232,10.157278060913086,-0.9795630574226379,3.2093262672424316,-9.309996604919434,-4.619998455047607,-4.899998188018799,5.254055351235363,72.46538002284379,0.094970703125,10.697177968033706,0,,0
1672219981338,8.725056648254395,-0.790356457233429,2.905158758163452,-11.619996070861816,-12.45999526977539,-1.329999566078186,4.912249133507373,71.58392707587738,0.116455078125,9.229909222461107,0,,0
1672219981446,5.793552398681641,-0.3951782286167145,1.8585352897644043,-4.059998512268066,-19.10999298095703,-6.719997882843018,3.716133983038604,72.2140848495533,0.1083984375,6.097177105180896,0,,0
1672219981549,7.134763717651367,-0.5460644960403442,2.742297410964966,-3.709998607635498,25.689990997314453,2.2399990558624268,4.086295971585385,68.97537951497716,0.0927734375,7.663108692347728,0,,0
1672219981655,9.582473754882812,-0.850231945514679,2.4980053901672363,-2.72999906539917,8.959996223449707,-1.1899995803833008,4.9072914438126665,75.38903752797175,0.1181640625,9.939151299456919,1,,0
1672219981772,10.969189643859863,-0.3951782286167145,3.5254688262939453,-4.4799981117248535,16.869993209838867,-7.769996643066406,1.9643768675677105,72.18273090302723,0.143798828125,11.528582641439733,1,,0
1672219981877,9.817185401916504,-0.3233276605606079,3.652405023574829,-0.5599997639656067,25.759990692138672,-1.81999933719635,1.768032620083771,69.59268654631617,0.16064453125,10.479586463592957,1,,0
1672219981983,9.32620620727539,-0.41673341393470764,4.059558391571045,-5.5999979972839355,4.129998683929443,-4.059998512268066,2.3461501481902403,66.47722651002617,0.14111328125,10.179970692172281,1,,0
1672219982088,9.680669784545898,-0.3688330352306366,4.390070915222168,-0.4199998676776886,22.74999237060547,-0.48999980092048645,1.9872930121110954,65.60626199529939,0.120849609375,10.635982696769348,1,,0
1672219982193,9.19687557220459,-0.38080811500549316,4.200864315032959,-3.9199984073638916,13.509994506835938,0.5599997639656067,2.1569242155434334,65.45046318298824,0.1220703125,10.118043096586655,1,,0
1672219982304,9.333391189575195,-0.35206788778305054,5.02475118637085,-0.34999987483024597,20.369993209838867,-0.6299998164176941,1.9023172651289368,61.70362746545377,0.12548828125,10.605860049056991,1,,0
1672219982414,8.875943183898926,-0.3041674792766571,5.075046539306641,0.7699997425079346,20.369993209838867,1.4699995517730713,1.7039987939250942,60.24013792291267,0.132080078125,10.228928713965095,1,,0
1672219982519,8.614885330200195,-0.13172608613967896,5.412744522094727,-1.81999933719635,3.4299986362457275,-1.5399994850158691,0.7417721108967998,57.85879610255878,0.139404296875,10.175038293575836,1,,0
1672219982624,9.371711730957031,-0.32093262672424316,5.84863805770874,1.4699995517730713,8.81999683380127,-3.219998836517334,1.664068460446183,58.0328009929668,0.130126953125,11.051630904492459,1,,0
1672219982732,10.8877592086792,-0.32093262672424316,7.565866947174072,-4.129998683929443,-7.55999755859375,-2.4499990940093994,1.3866281164420011,55.20469421908996,0.141845703125,13.2623014970787,1,,0
1672219982839,13.584551811218262,-0.3376977741718292,7.608977317810059,-5.809998035430908,-22.189992904663086,-0.48999980092048645,1.2424635912657924,60.74594583193366,0.168701171875,15.574036840886885,1,,0
1672219982945,10.310559272766113,-0.1700463891029358,6.543193817138672,6.229997634887695,25.96999168395996,6.859997272491455,0.7977972752865201,57.60034101929597,0.158447265625,12.212695591895836,1,,0
1672219983050,9.426796913146973,-0.59635990858078,6.234236240386963,-1.81999933719635,13.509994506835938,6.509997367858887,3.02051977772666,56.52208668285532,0.1435546875,11.31750178631459,1,,0
1672219983156,8.72745132446289,-0.4143384099006653,6.262976169586182,-3.779998779296875,-12.529995918273926,1.81999933719635,2.2088810996852275,54.33609748155788,0.13818359375,10.750114112863754,1,,0
1672219983268,9.034013748168945,-0.3137475848197937,6.052214622497559,-5.249998092651367,-34.29998779296875,1.4699995517730713,1.6527051101986518,56.1804300516792,0.1279296875,10.878471573978535,0,,0
1672219983374,9.683064460754395,-0.6011499166488647,5.546865463256836,-0.8399997353553772,-26.039989471435547,2.4499990940093994,3.0835415590008646,60.19410929289015,0.1181640625,11.175456815758505,0,,0
1672219983481,8.250843048095703,-0.5724096894264221,3.9541773796081543,9.379996299743652,4.409998416900635,6.439997673034668,3.579894881865297,64.394150654184,0.106689453125,9.167310543788906,0,,0
1672219983588,6.770720481872559,-0.6322851777076721,3.420088052749634,1.6799994707107544,-14.419994354248047,1.8899993896484375,4.764849494492787,63.200330197107625,0.107177734375,7.611796284593944,0,,0
1672219983696,5.326523780822754,-0.5580395460128784,2.153122663497925,-3.4299986362457275,-31.429988861083984,-0.7699997425079346,5.547778999377003,67.9901306355639,0.090087890625,5.772278659823431,0,,0
1672219983807,5.688171863555908,-1.1088941097259521,3.0680201053619385,19.039993286132812,7.839996814727783,4.059998512268066,9.736036143227144,61.6589795514287,0.090087890625,6.5572625891326854,0,,0
1672219983913,13.124707221984863,-0.29937744140625,5.029541015625,2.2399990558624268,-5.739997863769531,3.9899983406066895,1.2202052315469374,69.03258445148839,0.1005859375,14.058586320932084,0,,0
1672219984023,7.199429035186768,-0.4047583043575287,3.6068994998931885,0.5599997639656067,31.289987564086914,-0.27999988198280334,2.8775740045547864,63.389222513374136,0.114013671875,8.062588400753594,0,,0
1672219984128,10.540481567382812,-0.08622070401906967,4.816384315490723,-5.249998092651367,-5.529997825622559,3.289998769760132,0.4262744419401262,65.4423683127557,0.0947265625,11.589078632775058,0,,0
1672219984233,7.920330047607422,-1.4202466011047363,3.592529535293579,-28.909988403320312,-4.619998455047607,10.569995880126953,9.274702760621677,65.6017490517216,0.09765625,8.812207267928917,0,,0
1672219984341,9.55612850189209,-2.5985963344573975,4.01165771484375,-14.20999526977539,3.4299986362457275,12.249995231628418,14.075730471192132,67.22736154994233,0.08349609375,10.684834695735594,0,,0
1672219984445,9.156160354614258,-1.386716365814209,4.217629432678223,32.40998840332031,13.299995422363281,5.5999979972839355,7.8324154598477564,65.26764381058322,0.072998046875,10.17578757394338,0,,0
1672219984552,9.786049842834473,-1.456171989440918,4.13140869140625,23.51999282836914,-4.059998512268066,-12.739995002746582,7.805742657857276,67.1118287170189,0.073486328125,10.721741750513301,0,,0
1672219984661,8.66757583618164,-1.123264193534851,4.699028491973877,-12.039995193481445,-26.739990234375,-4.619998455047607,6.4995847934951625,61.53616421833838,0.0859375,9.923178023839926,0,,0
1672219984773,7.980205535888672,-0.9196875095367432,3.623664617538452,-11.969995498657227,-22.259990692138672,-2.099999189376831,5.990381413675056,65.57807449917179,0.088134765625,8.812516710374295,0,,0
1672219984879,7.858059406280518,-1.0011181831359863,3.410507917404175,-16.519994735717773,-16.099994659423828,-7.55999755859375,6.665789088768551,66.53848081397628,0.09228515625,8.624552133526459,0,,0
1672219984984,6.552773952484131,-0.6298901438713074,3.3769776821136475,7.349997520446777,37.589988708496094,-0.2099999338388443,4.88385464483795,62.7356462679452,0.066650390625,7.398620569484177,0,,0
1672219985092,8.9813232421875,-0.6753955483436584,4.164938926696777,0.5599997639656067,6.859997272491455,-1.1899995803833008,3.9027548301698003,65.12127357230857,0.053955078125,9.923056111425245,1,,0
1672219985197,9.299860954284668,-0.7041357755661011,4.742138862609863,-0.8399997353553772,4.199998378753662,-5.039998531341553,3.8588480037271453,62.98228220712262,0.056640625,10.462843874957485,1,,0
1672219985302,9.412426948547363,-0.790356457233429,4.739743709564209,-1.1199995279312134,20.369993209838867,-3.9199984073638916,4.289005333289793,63.27189618249472,0.052978515625,10.568046878377512,1,,0
1672219985408,9.31662654876709,-0.7256909608840942,4.852309703826904,-0.6999997496604919,10.149996757507324,0.9799996018409729,3.9519336359914954,62.48848099837162,0.04736328125,10.529533089446721,1,,0
1672219985515,9.383687019348145,-0.9244775772094727,5.314548492431641,-3.0799989700317383,17.429994583129883,0.9799996018409729,4.899732746882999,60.47450326776493,0.0458984375,10.823708539417225,1,,0
1672219985623,9.24238109588623,-0.5580395460128784,5.4822001457214355,-1.609999418258667,8.049997329711914,-3.4999988079071045,2.972703325019992,59.325326085478146,0.0546875,10.760461648751765,1,,0
1672219985728,9.053174018859863,-0.8646020889282227,5.776787281036377,-2.589998960494995,-0.48999980092048645,1.0499995946884155,4.602881130618184,57.45824628098795,0.03759765625,10.77398570067187,1,,0
1672219985833,9.24238109588623,-1.2094849348068237,6.0905351638793945,3.289998769760132,5.739997863769531,-0.4199998676776886,6.23600800315963,56.61595633808618,0.03466796875,11.134589382261531,1,,0
1672219985942,8.892707824707031,-0.49576905369758606,5.314548492431641,-3.289998769760132,-11.409996032714844,-7.979996681213379,2.7398137997846876,59.13619656494664,0.02197265625,10.371618248307122,1,,0
1672219986049,9.66150951385498,-0.8574170470237732,6.198310852050781,-2.2399990558624268,14.909994125366211,1.0499995946884155,4.2717998553020555,57.31792718853398,0.058837890625,11.510820452838614,1,,0
1672219986156,10.205178260803223,-1.051413655281067,6.816226005554199,-2.3799991607666016,4.4799981117248535,0.13999994099140167,4.896829883189166,56.26031085963867,0.070556640625,12.317145406630367,1,,0
1672219986262,11.644585609436035,-0.8765771985054016,7.132368564605713,-2.9399991035461426,-11.969995498657227,2.169999122619629,3.6729605723490186,58.51231645363279,0.07666015625,13.683400269735595,1,,0
1672219986367,10.365645408630371,-0.7185059189796448,6.3803324699401855,2.3099992275238037,4.899998188018799,2.099999189376831,3.3782422388736877,58.38658961801468,0.08984375,12.19309222141954,1,,0
1672219986472,9.168134689331055,-0.7041357755661011,5.9013285636901855,-1.1199995279312134,-5.809998035430908,1.1899995803833008,3.6950582672673202,57.23149883119475,0.084716796875,10.92594067752398,0,,0
1672219986586,8.485554695129395,-0.9340576529502869,5.379214286804199,3.5699985027313232,5.669997692108154,1.3999994993209839,5.311495501566809,57.62832447403982,0.099365234375,10.090245216367435,0,,0
1672219986694,8.899892807006836,-0.8693921566009521,5.30975866317749,-0.06999997049570084,-10.00999641418457,-0.48999980092048645,4.795315900151395,59.17930562398511,0.091552734375,10.3998784492589,0,,0
1672219986806,9.433981895446777,-0.8789722323417664,5.630691051483154,-1.6799994707107544,-8.679996490478516,-0.27999988198280334,4.574163367070733,59.16905022195426,0.076171875,11.021673571018964,0,,0
1672219986912,9.273515701293945,-0.8406518697738647,5.137317180633545,-0.06999997049570084,-16.099994659423828,3.149998903274536,4.533847969713281,61.01454247863056,0.059814453125,10.634698718945085,0,,0
1672219987017,8.605305671691895,-1.183139681816101,4.361330986022949,3.5699985027313232,-15.679993629455566,4.759998321533203,6.991731820476023,63.123249824417705,0.07470703125,9.719686886910736,0,,0
1672219987123,7.7071733474731445,-0.7568262219429016,3.6979103088378906,-0.34999987483024597,-15.049993515014648,1.8899993896484375,5.059450260603941,64.36825674711432,0.079833984375,8.581832414492274,0,,0
1672219987228,5.874983310699463,-0.6849756240844727,2.8572583198547363,1.7499994039535522,-17.779993057250977,0.0,5.985561572606255,64.06434244749404,0.0615234375,6.568755255980104,0,,0
1672219987332,5.709726810455322,-0.910107433795929,2.4405250549316406,22.60999298095703,2.029999256134033,1.6799994707107544,8.338377785252698,66.85654309869376,0.043701171875,6.275781890317094,0,,0
1672219987440,12.094849586486816,-0.6418652534484863,4.334985733032227,0.06999997049570084,-13.999995231628418,7.209997177124023,2.8599712542096616,70.28151606935363,0.0498046875,12.864271406842976,0,,0
1672219987545,8.425679206848145,-0.8669971227645874,3.5158889293670654,-1.3999994993209839,-1.2599996328353882,-6.369997501373291,5.424726321626151,67.35007409410578,0.065673828125,9.170890309628675,0,,0
1672219987652,9.714200019836426,-0.9005273580551147,3.690725326538086,2.8699989318847656,4.969998359680176,5.319998264312744,4.952790030176641,69.19666578236414,0.04248046875,10.430632051028615,0,,0
1672219987756,9.563313484191895,-0.9819580316543579,3.7338356971740723,-1.2599996328353882,-5.249998092651367,-1.6799994707107544,5.463603726563164,68.67267271403925,0.046875,10.313231083726787,0,,0
1672219987862,9.608819007873535,-0.910107433795929,3.5494191646575928,-0.6999997496604919,3.219998836517334,0.5599997639656067,5.077280731333914,69.72618245503327,0.0556640625,10.283777257095807,0,,0
1672219987968,9.663904190063477,-0.8741821646690369,3.8248462677001953,-2.659999132156372,3.9199984073638916,-0.27999988198280334,4.807845236232681,68.40699183825491,0.05126953125,10.42998981894479,0,,0
1672219988075,9.069939613342285,-0.8622070550918579,3.889511823654175,-1.9599992036819458,15.189993858337402,-1.2599996328353882,4.993108027758059,66.78862980901408,0.06689453125,9.9063367508818,0,,0
1672219988181,9.441167831420898,-0.9651929140090942,4.258345127105713,-2.4499990940093994,11.549995422363281,-0.8399997353553772,5.324107342710329,65.72271696504156,0.056884765625,10.401958979146915,0,,0
1672219988287,10.34887981414795,-0.7568262219429016,4.720583915710449,4.5499982833862305,-0.13999994099140167,0.5599997639656067,3.8066255754617275,65.48016377774641,0.05859375,11.399825079498521,0,,0
1672219988393,8.495134353637695,-0.7831714153289795,3.264411687850952,-9.029996871948242,-23.799989700317383,-1.4699995517730713,4.918509639450495,68.97980985601463,0.052734375,9.134388256469157,0,,0
1672219988499,7.096443176269531,-0.5700146555900574,2.5890161991119385,-4.829998016357422,-13.929994583129883,-3.9899983406066895,4.3152995279578805,69.95636513319228,0.042724609375,7.575448986091443,0,,0
1672219988605,6.157595634460449,-0.8430469036102295,3.28357195854187,-3.5699985027313232,31.84998893737793,-4.4799981117248535,6.8884263926069345,61.93098360132819,0.037109375,7.02912205656835,0,,0
1672219988712,8.071216583251953,-0.5340893864631653,3.6883301734924316,1.5399994850158691,9.659996032714844,-1.5399994850158691,3.444231847902156,65.44086667874394,0.053466796875,8.890082568524807,0,,0
1672219988819,10.015972137451172,-0.5245093107223511,4.689448356628418,-3.4299986362457275,5.879998207092285,-2.659999132156372,2.7153039137919217,64.9111463140063,0.0517578125,11.071844189868171,1,,0
1672219988924,9.5704984664917,-0.6945556998252869,4.77087926864624,0.8399997353553772,14.20999526977539,-2.169999122619629,3.7161323508638304,63.50381324723343,0.066162109375,10.716255759978774,1,,0
1672219989029,9.807605743408203,-0.7568262219429016,5.173242568969727,-3.9199984073638916,1.1899995803833008,-0.5599997639656067,3.9046194890523362,62.189584723010064,0.056884765625,11.11415111584121,1,,0
1672219989137,9.261541366577148,-0.8837622404098511,5.166057586669922,0.2099999338388443,15.539993286132812,-0.6999997496604919,4.763743747691685,60.84736437851817,0.0595703125,10.641679151862446,1,,0
1672219989244,9.132209777832031,-0.7352710366249084,5.257068157196045,-2.7999989986419678,0.8399997353553772,-0.8399997353553772,3.9915234229431484,60.07259164699032,0.0439453125,10.562889970696231,1,,0
1672219989348,9.534573554992676,-0.5771997570991516,5.726491928100586,2.029999256134033,13.229995727539062,-3.709998607635498,2.970797688583002,59.01085321317278,0.0390625,11.137053570750307,1,,0
1672219989454,9.201665878295898,-0.6634204387664795,5.714516639709473,-1.2599996328353882,2.72999906539917,-0.13999994099140167,3.504866772981071,58.15845126188757,0.033203125,10.852026632840733,1,,0
1672219989561,9.172924995422363,-0.6825805902481079,5.592370986938477,1.2599996328353882,-5.45999813079834,0.4199998676776886,3.6354484994165976,58.63098358348981,0.04248046875,10.764900486738327,1,,0
1672219989665,8.902288436889648,-0.9436377286911011,5.4438796043396,-0.13999994099140167,0.6299998164176941,2.3799991607666016,5.167269331285196,58.55360415927654,0.037353515625,10.47745277837763,1,,0
1672219989770,8.710686683654785,-0.9268726110458374,5.32891845703125,0.6999997496604919,-6.0899977684021,3.289998769760132,5.186416430549063,58.54304374543378,0.0693359375,10.253415394862145,1,,0
1672219989879,8.866362571716309,-0.8669971227645874,5.522915363311768,2.4499990940093994,5.5999979972839355,2.029999256134033,4.744645763068871,58.080951019333085,0.07568359375,10.481729980032831,1,,0
1672219989987,9.953701972961426,-0.6993457078933716,5.755232334136963,-2.169999122619629,-8.049997329711914,-0.48999980092048645,3.480694751559457,59.9634910165143,0.07861328125,11.519026287216322,1,,0
1672219990093,9.61600399017334,-0.9340576529502869,5.357658863067627,-0.2099999338388443,1.4699995517730713,3.219998836517334,4.850159326147352,60.875169387911704,0.07763671875,11.047375477056606,0,,0
1672219990206,8.713081359863281,-0.6969507336616516,5.221142768859863,-2.2399990558624268,5.389997959136963,-0.7699997425079346,3.9251004452027187,59.06867943863668,0.079833984375,10.1815450164288,0,,0
1672219990312,8.0137357711792,-0.7664062976837158,5.316943645477295,2.099999189376831,7.55999755859375,0.5599997639656067,4.556357743250598,56.43657029273562,0.068115234375,9.647654085454542,0,,0
1672219990418,8.095166206359863,-0.77598637342453,5.046306133270264,1.329999566078186,-3.4999988079071045,2.5199992656707764,4.650591140655677,58.06171039308968,0.082275390625,9.570740637537535,0,,0
1672219990532,9.029224395751953,-0.8262817859649658,5.805527687072754,2.099999189376831,-6.439997673034668,1.609999418258667,4.401599543573828,57.26016596756405,0.087158203125,10.76632650926155,0,,0
1672219990639,10.150093078613281,-0.8143066763877869,5.956413745880127,0.7699997425079346,-6.509997367858887,0.4199998676776886,3.9581203957525815,59.59416535807318,0.110595703125,11.79687880669428,0,,0
1672219990745,8.569379806518555,-0.7185059189796448,5.077441692352295,1.8899993896484375,9.029996871948242,1.9599992036819458,4.125849988749266,59.35284215650948,0.080322265625,9.986537696479902,0,,0
1672219990849,7.1203932762146,-0.6155200600624084,4.512217044830322,-0.6299998164176941,12.45999526977539,1.5399994850158691,4.176205635899405,57.63742812643725,0.078125,8.452157595073496,0,,0
1672219990953,6.830595970153809,-0.3448828160762787,4.555327415466309,0.4199998676776886,-2.3799991607666016,-2.2399990558624268,2.4053764878673225,56.300660860282136,0.075439453125,8.217480959905238,0,,0
1672219991059,8.875943183898926,-0.7568262219429016,5.769602298736572,-6.509997367858887,-35.90998458862305,-7.069997310638428,4.089164235924944,56.97504692217389,0.0693359375,10.613362521821655,0,,0
1672219991167,13.656401634216309,-1.027463436126709,6.547983646392822,-3.709998607635498,-9.519996643066406,3.219998836517334,3.8810794932794157,64.38317230613485,0.072265625,15.179890531259803,0,,0
1672219991274,8.806487083435059,-0.8214917182922363,4.564907550811768,-2.659999132156372,21.909992218017578,-3.4299986362457275,4.734287727502907,62.59970147235977,0.08056640625,9.95326299970967,0,,0
1672219991380,5.779182434082031,-0.7352710366249084,3.891906976699829,-5.949997425079346,3.0099987983703613,-4.059998512268066,6.0240620559423315,56.042273549853924,0.056396484375,7.006176776173049,0,,0
1672219991484,5.460644721984863,-0.4430786371231079,3.841611385345459,3.0099987983703613,9.799996376037598,2.029999256134033,3.7967634564852246,54.87327798525866,0.044677734375,6.6912582893228585,0,,0
1672219991591,9.54175853729248,-0.15328125655651093,5.518125057220459,-3.709998607635498,-24.779991149902344,-0.5599997639656067,0.796718202150374,59.95863777087583,0.033447265625,11.023536423250471,0,,0
1672219991698,14.89941692352295,-1.2334351539611816,7.5993971824646,-5.45999813079834,-10.709996223449707,4.969998359680176,4.217679157688716,62.97629892628672,0.0615234375,16.7709518059304,0,,0
1672219991805,8.332273483276367,-0.7807763814926147,4.133803844451904,-2.5199992656707764,7.2799973487854,1.329999566078186,4.798288409296112,63.613091152713544,0.064453125,9.33406274793632,0,,0
1672219991912,5.446274757385254,-0.7089257836341858,3.7745509147644043,1.2599996328353882,12.739995002746582,3.5699985027313232,6.106567090578611,55.27603305005348,0.034423828125,6.664211814444522,0,,0
1672219992019,5.395979404449463,-0.5197192430496216,3.7146754264831543,-0.909999668598175,1.609999418258667,0.6299998164176941,4.536032334504308,55.45587659245385,0.060302734375,6.571568712944928,0,,0
1672219992125,9.472302436828613,-1.0585986375808716,5.736072063446045,6.929997444152832,3.709998607635498,1.1199995279312134,5.4606346368244365,58.802470496200534,0.048095703125,11.124192880712,0,,0
1672219992229,15.682588577270508,-1.5232324600219727,8.06882095336914,-4.059998512268066,-19.459993362426758,3.149998903274536,4.936256448010054,62.77380675148992,0.0703125,17.702251076875193,0,,0
1672219992334,9.821975708007812,-1.31247079372406,5.110971927642822,0.48999980092048645,11.059995651245117,-0.4199998676776886,6.7601632068362365,62.50929492893538,0.063720703125,11.14970046405854,0,,0
1672219992446,5.486989974975586,-0.48618897795677185,3.4344582557678223,-2.4499990940093994,5.669997692108154,-1.2599996328353882,4.295293020231195,57.956415895897464,0.04736328125,6.491451472388975,0,,0
1672219992552,4.773273944854736,-0.38080811500549316,2.9889845848083496,2.9399991035461426,10.219995498657227,0.34999987483024597,3.8682469483647304,57.94554286821634,0.079345703125,5.644748694256023,0,,0
1672219992657,8.401728630065918,-0.3185376226902008,4.7636942863464355,-1.1899995803833008,-10.639996528625488,-3.0799989700317383,1.8889804058228024,60.44720642751408,0.057373046875,9.66350316624919,0,,0
1672219992763,14.341377258300781,-1.25738525390625,8.071216583251953,-1.3999994993209839,-6.159997940063477,5.949997425079346,4.36926037710677,60.62952626725727,0.066162109375,16.50456471632648,0,,0
1672219992869,11.215876579284668,-1.290915608406067,6.303691864013672,1.1199995279312134,6.369997501373291,-1.5399994850158691,5.729647231421197,60.66257995691863,0.06787109375,12.930540656376472,0,,0
1672219992976,6.239026069641113,-0.5915698409080505,4.3661208152771,8.119997024536133,41.509986877441406,3.779998779296875,4.442081419760372,55.01536077780593,0.06396484375,7.6379586374848465,0,,0
1672219993082,4.775669097900391,-0.3400927782058716,2.8907887935638428,-0.13999994099140167,2.099999189376831,-5.17999792098999,3.4862560413891672,58.81281066968611,0.071044921875,5.5927934236321315,0,,0
1672219993187,6.188730716705322,-0.41194337606430054,4.315825462341309,-0.8399997353553772,-19.529993057250977,-2.3799991607666016,3.125151140436022,55.109297969253404,0.055419921875,7.556218277046316,0,,0
1672219993291,10.75363826751709,-1.0538086891174316,7.113208293914795,1.5399994850158691,-5.17999792098999,-2.4499990940093994,4.6725544199332125,56.51656282325191,0.044189453125,12.936343415914932,0,,0
1672219993398,15.237114906311035,-1.2957056760787964,8.303532600402832,-2.2399990558624268,-21.069992065429688,1.609999418258667,4.270268906332911,61.41163102946324,0.045654296875,17.40106828654785,0,,0
1672219993508,7.403005599975586,-0.5005590915679932,4.200864315032959,0.34999987483024597,8.539997100830078,-2.72999906539917,3.3655314052172534,60.42708800499975,0.050537109375,8.526565094499578,0,,0
1672219993616,4.825964450836182,-0.2850073277950287,3.161425828933716,-2.9399991035461426,6.509997367858887,2.72999906539917,2.8281629042344267,56.77171938854063,0.041015625,5.776311567902191,0,,0
1672219993722,5.1828227043151855,-0.20836670696735382,3.4057178497314453,0.0,14.139994621276855,1.9599992036819458,1.924331061290241,56.69042754618879,0.0458984375,6.20515768864231,0,,0
1672219993826,8.705896377563477,-0.447868674993515,5.692961692810059,-6.369997501373291,-18.059993743896484,2.659999132156372,2.465395698326121,56.818515648623546,0.04541015625,10.411677622876924,0,,0
1672219993932,15.057488441467285,-1.07296884059906,7.688013076782227,-7.979996681213379,-43.46998596191406,-0.7699997425079346,3.631375151171383,62.952171352428344,0.067138671875,16.940624704142166,0,,0
1672219994041,10.602751731872559,-1.003513216972351,4.7253737449646,5.039998531341553,-3.0799989700317383,3.0099987983703613,4.940910120000122,65.97869656743127,0.06298828125,11.651375030182725,0,,0
1672219994147,6.315666675567627,-0.9580078721046448,3.472778558731079,-1.8899993896484375,20.649991989135742,9.379996299743652,7.5712875899985,61.195044171474585,0.064697265625,7.270874469956982,0,,0
1672219994253,5.446274757385254,-0.4598437547683716,3.293152093887329,0.34999987483024597,19.80999183654785,7.349997520446777,4.132521935132662,58.84026624241119,0.061767578125,6.381082645226105,0,,0
1672219994359,7.316784858703613,-0.7927514910697937,3.8487966060638428,-4.829998016357422,-16.379993438720703,1.8899993896484375,5.4773330386608094,62.25460086024046,0.07470703125,8.305241171091685,0,,0
1672219994465,12.466076850891113,-1.520837426185608,6.104905128479004,-12.949995040893555,-40.52998352050781,-4.339998245239258,6.252680035931805,63.90801758094143,0.078125,13.96373464217003,0,,0
1672219994572,13.848003387451172,-1.995051383972168,6.353987216949463,-4.5499982833862305,12.8099946975708,4.689998149871826,7.4599779287721555,65.35255443224816,0.094970703125,15.36621558473997,0,,0
1672219994679,8.183781623840332,-2.2201831340789795,5.357658863067627,1.81999933719635,76.50997161865234,8.679996490478516,12.788127998439288,56.78851991972853,0.108642578125,10.030354096868294,0,,0
1672219994784,6.083349704742432,-0.9460327625274658,3.982917547225952,7.839996814727783,24.91999053955078,-16.02999496459961,7.412901526949037,56.78625224558376,0.083251953125,7.3325134712433755,0,,0
1672219994891,6.356381893157959,0.34248781204223633,5.709726810455322,-4.199998378753662,-29.1199893951416,-17.149993896484375,-2.2954101226670223,48.06769959319934,0.072998046875,8.551132610543245,0,,0
1672219994997,9.25675106048584,-0.07185059040784836,5.32891845703125,9.659996032714844,-35.20998764038086,6.229997634887695,0.3854184562935278,60.07186367186754,0.0849609375,10.681290868843334,0,,0
1672219995110,11.433823585510254,-2.545905828475952,6.164780616760254,-4.409998416900635,-14.5599946975708,14.349995613098145,11.088930046240604,61.667762495839995,0.08740234375,13.237011684093254,0,,0
1672219995215,9.467513084411621,-0.9651929140090942,5.570815563201904,-1.9599992036819458,30.93998908996582,-4.199998378753662,5.021427131878657,59.526856363417714,0.110595703125,11.02721122514533,0,,0
1672219995319,7.568262100219727,-0.3400927782058716,5.091811656951904,-5.949997425079346,27.159990310668945,-6.159997940063477,2.13522603649933,56.06793380239355,0.109375,9.128022801531632,0,,0
1672219995425,6.876101493835449,-0.6873706579208374,5.283413410186768,-2.4499990940093994,10.91999626159668,-8.749996185302734,4.532223696863022,52.46228326811538,0.09619140625,8.698718723917793,0,,0
1672219995530,7.874824523925781,-0.6849756240844727,5.688171863555908,-3.359998941421509,-7.90999698638916,-17.079994201660156,4.0333581791340976,54.15852866546563,0.0927734375,9.738447106061722,0,,0
1672219995634,9.295071601867676,-0.7807763814926147,5.898933410644531,-7.629997253417969,-33.45998764038086,-22.60999298095703,4.056756916936191,57.59955360438171,0.101318359375,11.036547613495895,0,,0
1672219995737,9.239985466003418,-1.2621753215789795,5.312153339385986,1.329999566078186,-11.479995727539062,1.0499995946884155,6.753707557148848,60.105004965532785,0.10498046875,10.732632065598219,0,,0
1672219995841,8.00894546508789,-1.111289143562317,4.629572868347168,-4.339998245239258,-10.91999626159668,6.439997673034668,6.850103782218098,59.96993004763858,0.102294921875,9.317248304445233,0,,0
1672219995944,7.520361423492432,-0.53887939453125,4.406836032867432,-5.809998035430908,-14.419994354248047,14.699995040893555,3.5377202479078798,59.63024047973242,0.11083984375,8.733065370325717,0,,0
1672219996048,8.236472129821777,-1.0705738067626953,4.361330986022949,-5.17999792098999,-6.929997444152832,24.989990234375,6.552820795058608,62.09813392515475,0.131103515625,9.381194454369933,0,,0
1672219996151,10.449470520019531,-1.2957056760787964,5.470224857330322,-7.90999698638916,1.8899993896484375,12.10999584197998,6.269088000838929,62.36825662146966,0.153564453125,11.865649891073586,0,,0
1672219996255,10.51413631439209,-1.7148340940475464,5.065466403961182,-8.329997062683105,-4.5499982833862305,2.5199992656707764,8.358917204499535,64.27631415228795,0.1630859375,11.796044603907946,0,,0
1672219996359,10.106983184814453,-1.6789087057113647,5.091811656951904,-5.249998092651367,-4.199998378753662,-13.859994888305664,8.438340091439176,63.26142557938288,0.17333984375,11.440996000790612,0,,0
1672219996463,8.76337718963623,-1.5352076292037964,4.653522968292236,-5.809998035430908,10.639996528625488,-18.339994430541992,8.795230735563491,62.03083261285399,0.1650390625,10.040364448018085,0,,0
1672219996567,7.905959606170654,-1.3603711128234863,4.540957450866699,-8.749996185302734,0.48999980092048645,-18.47999382019043,8.48639597746624,60.12817067669925,0.1513671875,9.218194043823793,0,,0
1672219996672,8.06882095336914,-1.3292359113693237,5.0630717277526855,0.8399997353553772,7.839996814727783,-3.9199984073638916,7.943806369622111,57.89230678111169,0.145751953125,9.618078550623887,0,,0
1672219996776,8.526269912719727,-0.9460327625274658,4.876259803771973,6.999997615814209,6.579997539520264,-2.2399990558624268,5.501529051791428,60.2343251841727,0.16162109375,9.867632253291935,0,,0
1672219996879,9.328601837158203,-0.5795947313308716,4.95050573348999,3.4299986362457275,-7.979996681213379,-1.0499995946884155,3.1413413037395435,62.045986053340854,0.166748046875,10.57668423023658,0,,0
1672219996986,9.14657974243164,-0.7999365329742432,5.20916748046875,3.9199984073638916,0.8399997353553772,8.539997100830078,4.345936732151109,60.337587016347726,0.165771484375,10.55628937084527,0,,0
1672219997091,8.887917518615723,-0.9987232089042664,5.029541015625,1.2599996328353882,4.339998245239258,8.889996528625488,5.585534964933212,60.4951207391305,0.160400390625,10.261033510011282,0,,0
1672219997196,9.92496109008789,-1.1639795303344727,5.494174957275391,0.8399997353553772,3.9899983406066895,8.119997024536133,5.858373284842418,61.03233912266903,0.1689453125,11.403756374456108,0,,0
1672219997303,10.782378196716309,-1.4034814834594727,5.427114486694336,0.4199998676776886,-4.689998149871826,5.389997959136963,6.631842839143513,63.28243125194944,0.15771484375,12.15248993017992,0,,0
1672219997409,10.051897048950195,-1.520837426185608,5.625901222229004,1.2599996328353882,7.1399970054626465,3.0799989700317383,7.521067713053543,60.76489238284942,0.166015625,11.619137029997464,0,,0
1672219997516,9.647139549255371,-1.31247079372406,5.417534351348877,0.4199998676776886,0.8399997353553772,1.81999933719635,6.76498316146823,60.68278456787196,0.178466796875,11.141793370693557,0,,0
1672219997622,9.15137004852295,-1.6286133527755737,5.419929504394531,1.3999994993209839,-6.019997596740723,1.7499994039535522,8.705715826943347,59.36372002568579,0.15478515625,10.759906646920696,0,,0
1672219997727,8.578960418701172,-1.5974781513214111,5.058281421661377,2.5199992656707764,-0.909999668598175,4.899998188018799,9.112788101265505,59.47577243742725,0.138427734375,10.086461681398255,0,,0
1672219997832,9.043594360351562,-1.6645386219024658,5.903723239898682,9.379996299743652,11.129995346069336,0.06999997049570084,8.76168973261451,56.863209674548216,0.108642578125,10.927544823596348,0,,0
1672219997939,9.000483512878418,-1.161584496498108,5.479804992675781,7.839996814727783,-1.9599992036819458,2.659999132156372,6.290565868696896,58.665502336044575,0.109619140625,10.601237888372065,0,,0
1672219998047,8.799302101135254,-1.5639477968215942,5.175637245178223,9.029996871948242,-12.319995880126953,3.0099987983703613,8.70996323854481,59.53650056361439,0.112060546875,10.32767500805009,0,,0
1672219998154,8.135881423950195,-0.9891431331634521,4.682263374328613,10.4299955368042,-23.939990997314453,-5.529997825622559,6.0152582130759065,60.07923669632014,0.123291015625,9.438991523941604,0,,0
1672219998260,7.853269577026367,-0.9747729897499084,4.090693473815918,3.6399986743927,-22.53999137878418,2.9399991035461426,6.282056055734732,62.48542126263377,0.129638671875,8.908299418391481,0,,0
1672219998379,7.4796462059021,-1.3675562143325806,3.3554224967956543,6.229997634887695,-17.149993896484375,2.8699989318847656,9.470861650507457,65.83865649072662,0.13232421875,8.31108762418179,0,,0
1672219998492,8.305928230285645,-1.0394384860992432,3.3889527320861816,14.069994926452637,2.589998960494995,-0.13999994099140167,6.609410728441151,67.80374802692464,0.078125,9.030718507037781,0,,0
1672219998597,9.113049507141113,-0.5340893864631653,2.9195289611816406,13.019994735717773,6.719997882843018,-3.359998941421509,3.1945265065869375,72.23620694451425,0.092041015625,9.584183436658329,0,,0
1672219998704,9.019643783569336,-0.7975415587425232,3.6092946529388428,-1.8899993896484375,-4.759998321533203,3.289998769760132,4.6931119873855325,68.19072103388265,0.06884765625,9.747669178431085,0,,0
1672219998811,9.268726348876953,-1.063388705253601,3.8272414207458496,-3.149998903274536,-16.02999496459961,2.589998960494995,6.053246150646957,67.56329628885929,0.08056640625,10.084039892895087,0,,0
1672219998916,9.963281631469727,-0.8526269793510437,4.05237340927124,-1.8899993896484375,-2.029999256134033,-3.0099987983703613,4.532407991505886,67.86691079215622,0.078857421875,10.789609996754653,0,,0
1672219999021,9.156160354614258,-1.0298584699630737,3.252436637878418,-5.669997692108154,1.329999566078186,0.8399997353553772,6.050126952522422,70.44402558704556,0.075927734375,9.771091289665573,0,,0
1672219999127,9.560918807983398,-0.907712459564209,3.920647144317627,-0.4199998676776886,-7.90999698638916,-4.759998321533203,5.020041415375129,67.70293147796245,0.076904296875,10.373359359067088,0,,0
1672219999232,9.398056983947754,-0.9029223918914795,3.3171021938323975,-0.27999988198280334,9.099996566772461,4.969998359680176,5.176737710417898,70.55920137344594,0.076171875,10.007093028629038,0,,0
1672219999336,9.431587219238281,-1.1208691596984863,3.3554224967956543,-8.539997100830078,1.609999418258667,1.1199995279312134,6.388647446790679,70.4162545378472,0.069580078125,10.073234102276412,0,,0
1672219999441,9.893826484680176,-0.7448511123657227,4.169729232788086,-1.6799994707107544,6.789997577667236,2.029999256134033,3.968535745702916,67.14712736020878,0.095458984375,10.762399712114341,0,,0
1672219999548,9.340576171875,-1.2621753215789795,4.303850173950195,0.6999997496604919,14.419994354248047,3.289998769760132,6.996740794740329,65.2612036612185,0.071044921875,10.361591387659193,0,,0
1672219999654,8.746611595153809,-1.2741504907608032,4.689448356628418,1.8899993896484375,10.499996185302734,1.7499994039535522,7.315919272802215,61.80225724792216,0.058349609375,10.005878260256319,0,,0
1672219999759,9.187294960021973,-0.9005273580551147,4.35175085067749,4.759998321533203,-2.7999989986419678,-3.9899983406066895,5.06226076906272,64.6544644411085,0.063720703125,10.205639307335094,0,,0
1672219999867,9.060359001159668,-1.0466235876083374,4.61041259765625,8.259997367858887,-6.299997806549072,-0.5599997639656067,5.878125522085219,63.03048670074491,0.054931640625,10.2196590199801,0,,0
1672219999973,9.285490989685059,-1.171164631843567,4.488266944885254,1.7499994039535522,-12.45999526977539,1.609999418258667,6.478656969725336,64.2025748836066,0.056640625,10.379619919965918,0,,0
1672220000079,9.632768630981445,-0.7328760027885437,3.7649707794189453,1.9599992036819458,6.719997882843018,7.699997425079346,4.0532787524622735,68.65194046066574,0.055419921875,10.368333699460196,0,,0
1672220000185,10.267449378967285,-0.7209008932113647,3.5063087940216064,10.91999626159668,-17.079994201660156,-2.4499990940093994,3.801411734409013,71.14508982069918,0.069091796875,10.873565018268934,0,,0
