Time,Ax,Ay,Az,Gx,Gy,Gz,BAR,P,R,UP,DOWN,prob
1671462680372,9.1154,1.6861,4.4428,0.2100,2.1700,-0.6300,1.0000,0.0000,0.0000,0,0,0
1671462680502,9.0436,1.6693,4.3541,1.4700,2.5900,-0.2800,1.0000,0.0000,0.0000,0,0,0
1671462680633,9.0125,1.6837,4.3062,0.5600,-2.1700,0.9800,1.0000,0.0000,0.0000,0,0,0
1671462680761,9.0292,1.7364,4.3398,-3.3600,-0.3500,0.9800,1.0000,0.0000,0.0000,0,0,0
1671462680897,9.0891,1.6358,4.4547,3.7800,-3.0100,0.7700,1.0000,0.0000,0.0000,0,0,0
1671462681026,9.0963,1.6310,4.1817,0.9800,1.3300,-0.4200,1.0000,0.0000,0.0000,0,0,0
1671462681153,9.0939,1.7555,4.3518,0.0700,1.8900,0.4900,1.0000,0.0000,0.0000,0,0,0
1671462681278,9.0053,1.6238,4.7829,-0.3500,-0.8400,0.6300,1.0000,0.0000,0.0000,0,0,0
1671462681401,9.1083,1.6550,4.3805,0.6300,-0.0700,0.4200,1.0000,0.0000,0.0000,0,0,0
1671462681528,9.0580,1.6574,4.3326,0.2800,0.3500,0.2100,1.0000,0.0000,0.0000,0,0,0
1671462681653,9.0628,1.6214,4.3733,-0.6300,-2.5200,1.1200,1.0000,0.0000,0.0000,0,0,0
1671462681778,9.1466,1.6142,4.3398,0.0700,-1.0500,-0.0700,1.0000,0.0000,0.0000,0,0,0
1671462681902,9.1226,1.6526,4.3158,0.2100,-0.1400,-0.4900,1.0000,0.0000,0.0000,0,0,0
1671462682025,9.1274,1.6190,4.2967,0.2100,-1.8900,0.7000,1.0000,0.0000,0.0000,0,0,0
1671462682148,9.1322,1.5903,4.2991,0.1400,-3.5700,1.4000,1.0000,0.0000,0.0000,0,0,0
1671462682270,9.1921,1.6310,4.2320,0.4900,-1.0500,1.1900,1.0000,0.0000,0.0000,0,0,0
1671462682392,9.1107,1.6071,4.1458,0.1400,-1.1900,-0.1400,1.0000,0.0000,0.0000,0,0,0
1671462682513,9.2112,1.6023,4.1338,-0.3500,-2.8000,0.9800,1.0000,0.0000,0.0000,0,0,0
1671462682637,9.1969,1.5711,4.0931,0.6300,-4.4800,1.1900,1.0000,0.0000,0.0000,0,0,0
1671462682758,9.2496,1.5999,4.0141,0.2800,-2.2400,1.1900,1.0000,0.0000,0.0000,0,0,0
1671462682875,9.2831,1.5807,4.0164,-0.0700,-1.6100,0.4200,1.0000,0.0000,0.0000,0,0,0
1671462682991,9.1753,1.5544,4.1913,-0.8400,-0.7700,0.8400,1.0000,0.0000,0.0000,1,0,0
1671462683109,9.4316,1.8322,4.1314,-5.8100,1.0500,-0.0700,1.0000,0.0000,0.0000,0,0,0
1671462683225,9.2687,1.5089,3.7123,15.6800,2.3800,1.8200,1.0000,0.0000,0.0000,0,0,0
1671462683341,9.2472,1.5160,4.1266,-2.4500,12.1800,-10.0100,1.0000,0.0000,0.0000,0,0,0
1671462683457,9.8675,1.5304,4.5697,0.1400,-8.3300,3.5000,1.0000,0.0000,0.0000,0,0,0
1671462683570,8.4185,1.9687,3.6835,0.8400,11.6900,1.9600,1.0001,0.0000,0.0000,0,0,0
1671462683684,7.5347,1.3005,3.4871,-7.7000,2.3100,3.9900,1.0001,0.0000,0.0000,0,0,0
1671462683799,7.7455,1.2406,3.8296,-7.6300,-5.7400,-7.0700,1.0001,0.0000,0.0000,0,0,0
1671462683915,8.1598,1.4035,3.9949,-4.7600,4.5500,-4.9000,1.0000,0.0000,0.0000,0,0,0
1671462684031,8.4856,1.6358,4.1673,-1.1200,2.1700,-0.9800,1.0000,0.0000,0.0000,0,0,0
1671462684145,9.8172,1.9064,4.5434,-1.1200,-5.8800,-0.7700,1.0000,0.0000,0.0000,0,0,0
1671462684258,9.7645,1.8226,4.6344,-1.3300,1.4000,-2.3800,1.0000,0.0000,0.0000,0,0,0
1671462684372,9.6998,1.8825,4.5625,-2.3800,-3.9900,0.5600,1.0000,0.0000,0.0000,0,0,0
1671462684486,9.2496,1.8250,4.4260,0.2800,-7.9800,-0.1400,1.0000,0.0000,0.0000,0,0,0
1671462684600,9.6711,1.7603,4.3062,1.3300,-6.2300,0.4900,1.0000,0.0000,0.0000,0,0,0
1671462684713,9.2496,1.8657,4.2200,0.2800,-3.7100,2.1700,1.0000,0.0000,0.0000,0,0,0
1671462684826,9.6519,1.8154,4.1937,-0.2100,-3.9900,2.4500,1.0000,0.0000,0.0000,0,0,0
1671462684941,9.6160,1.7340,4.0739,0.5600,-4.0600,1.6100,1.0000,0.0000,0.0000,0,0,0
1671462685054,9.8819,1.7939,4.0572,-1.1200,-3.4300,2.1000,1.0000,0.0000,0.0000,0,0,0
1671462685168,9.8747,1.7268,4.0117,0.0000,-2.3800,-0.3500,1.0000,0.0000,0.0000,0,0,0
1671462685281,10.0519,1.8034,4.0787,-0.9800,-5.4600,-0.1400,1.0000,0.0000,0.0000,0,0,0
1671462685393,9.9202,1.7891,3.8536,-0.7700,-2.4500,-1.6800,1.0000,0.0000,0.0000,0,0,0
1671462685507,10.0567,1.7172,3.8656,-1.6100,5.3200,2.4500,1.0000,0.0000,0.0000,0,0,0
1671462685620,10.7153,1.9783,4.3398,-0.9800,2.8700,0.7700,1.0000,0.0000,0.0000,0,0,0
1671462685733,11.4985,2.1507,4.6799,-2.3800,1.9600,0.7700,1.0000,0.0000,0.0000,0,0,0
1671462685847,10.4591,1.8801,4.5673,0.0000,3.6400,-2.3100,1.0000,0.0000,0.0000,0,0,0
1671462685961,9.6639,1.6933,4.0093,0.0000,4.5500,-1.6800,1.0000,0.0000,0.0000,0,0,0
1671462686073,9.2879,1.5927,3.9111,2.2400,-4.2700,1.0500,1.0000,0.0000,0.0000,0,1,0
1671462686188,9.2544,1.5639,3.8775,4.9000,-1.0500,2.4500,1.0000,0.0000,0.0000,0,0,0
1671462686302,9.3430,1.8657,3.8704,2.2400,-0.7000,2.8000,1.0000,0.0000,0.0000,0,0,0
1671462686417,9.1154,1.6047,3.8129,3.3600,7.9800,-3.9900,1.0000,0.0000,0.0000,0,0,0
1671462686529,8.6173,1.5496,3.6404,0.4200,4.9700,1.2600,1.0000,0.0000,0.0000,0,0,0
1671462686642,7.5683,1.5160,3.2405,3.7800,-11.7600,2.5200,1.0000,0.0000,0.0000,0,0,0
1671462686756,7.8509,1.3221,3.1806,7.2100,-5.1800,5.0400,0.9999,0.0000,0.0000,0,0,0
1671462686869,7.6808,1.3580,3.0417,10.1500,-3.9900,4.8300,0.9999,0.0000,0.0000,0,0,0
1671462686982,9.5681,1.8873,3.6644,3.8500,-2.8700,2.8000,0.9999,0.0000,0.0000,0,0,0
1671462687095,9.2879,1.6023,3.5518,-1.3300,2.8000,-3.2900,0.9999,0.0000,0.0000,0,0,0
1671462687209,9.3549,1.5687,3.3123,-0.8400,-7.6300,3.2200,0.9999,0.0000,0.0000,1,0,0
1671462687318,9.3262,1.6286,3.5039,0.5600,1.1900,2.8700,0.9999,0.0000,0.0000,0,0,0
1671462687430,9.0340,1.4466,3.4991,-2.1700,0.9800,4.2700,0.9999,0.0000,0.0000,0,0,0
1671462687543,7.9706,1.4131,3.1950,-6.2300,3.2900,-1.7500,0.9999,0.0000,0.0000,0,0,0
1671462687657,8.0018,1.3221,3.2309,-6.6500,7.0700,-9.5900,0.9999,0.0000,0.0000,0,0,0
1671462687770,7.7766,1.2478,2.9219,-5.9500,3.9200,-2.8000,0.9999,0.0000,0.0000,0,0,0
1671462687883,9.0101,1.5807,3.8129,-5.4600,-0.9100,1.1900,0.9999,0.0000,0.0000,0,0,0
1671462687996,9.3214,1.5520,3.8751,-1.2600,-2.1700,-1.3300,1.0000,0.0000,0.0000,0,0,0
1671462688108,9.3430,1.5759,3.9087,-1.3300,-1.9600,-0.4900,1.0000,0.0000,0.0000,0,0,0
1671462688222,9.4460,1.6669,3.9709,-1.1200,-2.0300,-0.7000,1.0000,0.0000,0.0000,0,0,0
1671462688333,9.6663,1.6262,3.8009,-0.9800,-7.4200,0.7700,1.0000,0.0000,0.0000,0,0,0
1671462688446,9.6783,1.7124,3.9398,0.1400,-4.3400,0.2100,1.0000,0.0000,0.0000,0,0,0
1671462688558,9.9705,1.6741,3.7937,0.4900,-2.3800,-3.6400,1.0000,0.0000,0.0000,0,0,0
1671462688671,10.1214,1.6813,3.8225,0.7000,-5.8800,1.9600,1.0000,0.0000,0.0000,0,0,0
1671462688791,10.0447,1.7005,3.4392,0.5600,-7.3500,3.1500,1.0000,0.0000,0.0000,0,0,0
1671462688906,9.9082,1.6837,3.4943,2.1000,-1.0500,0.4900,1.0000,0.0000,0.0000,0,0,0
1671462689019,9.6064,1.5256,3.3075,-0.0700,-1.6800,0.4900,1.0000,0.0000,0.0000,0,0,0
1671462689131,9.9034,1.5855,3.4009,-1.4700,1.9600,0.4200,0.9999,0.0000,0.0000,0,0,0
1671462689242,10.1549,1.6502,3.4848,-2.8000,2.0300,-1.2600,1.0000,0.0000,0.0000,0,0,0
1671462689354,10.4830,1.7508,3.7626,-0.4900,2.9400,-1.0500,0.9999,0.0000,0.0000,0,0,0
1671462689466,11.9511,2.1747,4.2847,-2.5900,1.9600,2.0300,0.9999,0.0000,0.0000,0,0,0
1671462689579,11.4985,2.1244,4.4811,0.3500,10.0100,-4.0600,0.9999,0.0000,0.0000,0,0,0
1671462689692,10.2124,1.8394,3.6979,0.5600,3.0800,-3.7800,1.0000,0.0000,0.0000,0,0,0
1671462689804,9.5561,1.6765,3.4871,-2.7300,2.8000,1.1900,1.0000,0.0000,0.0000,0,1,0
1671462689916,9.3813,1.6047,3.3482,3.4300,-0.7000,-1.7500,1.0000,0.0000,0.0000,0,0,0
1671462690029,9.4316,1.7603,3.6620,8.9600,11.1300,2.0300,1.0000,0.0000,0.0000,0,0,0
1671462690141,9.3765,1.9136,3.8488,7.4200,-2.9400,5.1800,1.0000,0.0000,0.0000,0,0,0
1671462690252,8.9334,1.4969,3.5398,10.9200,-4.1300,2.8000,1.0000,0.0000,0.0000,0,0,0
1671462690371,8.9143,1.7364,3.4608,2.8700,-3.4300,5.7400,1.0000,0.0000,0.0000,0,0,0
1671462690484,8.6125,1.4993,3.0608,1.6800,-7.0700,1.1900,1.0000,0.0000,0.0000,0,0,0
1671462690597,4.7158,0.7975,1.7412,3.5000,-4.6200,-4.4100,1.0000,0.0000,0.0000,0,0,0
1671462690709,9.7286,1.9064,3.7793,5.7400,8.5400,12.9500,0.9999,0.0000,0.0000,0,0,0
1671462690823,9.2591,1.6214,3.5542,-0.0700,-5.5300,-4.1300,0.9999,0.0000,0.0000,0,0,0
1671462690935,9.5442,1.4394,3.0105,2.1700,-0.4200,1.6100,0.9999,0.0000,0.0000,1,0,0
1671462691048,9.6184,1.8873,3.2333,-0.1400,-6.3700,3.9900,0.9999,0.0000,0.0000,0,0,0
1671462691159,9.6807,1.7076,3.3458,-3.2200,3.2200,2.6600,0.9999,0.0000,0.0000,0,0,0
1671462691272,9.3909,1.5017,3.1854,-8.6100,-0.8400,0.7000,0.9999,0.0000,0.0000,0,0,0
1671462691385,8.7466,1.3580,3.1159,-7.5600,-2.0300,-0.0700,0.9999,0.0000,0.0000,0,0,0
1671462691498,8.8017,1.2550,3.1902,-3.2200,-0.7000,-1.1900,0.9999,0.0000,0.0000,0,0,0
1671462691605,8.6604,1.1616,3.3123,-4.6200,7.6300,-2.5200,0.9999,0.0000,0.0000,0,0,0
1671462691714,8.9238,1.4658,3.2021,-1.1200,2.7300,-2.8700,0.9999,0.0000,0.0000,0,0,0
1671462691826,9.4939,1.6023,3.6308,-2.7300,-0.3500,-5.1800,1.0000,0.0000,0.0000,0,0,0
1671462691938,9.1418,1.6358,3.4033,-0.7000,6.7200,-3.9900,1.0000,0.0000,0.0000,0,0,0
1671462692049,9.1130,1.4681,3.4632,0.2800,-6.8600,0.9800,1.0000,0.0000,0.0000,0,0,0
1671462692158,9.5753,1.7388,3.6261,-1.6100,-8.3300,2.7300,1.0000,0.0000,0.0000,0,0,0
1671462692268,9.8914,1.6142,3.6141,-0.9800,-1.6800,-1.6100,1.0000,0.0000,0.0000,0,0,0
1671462692377,9.9633,1.7340,3.8129,-1.6800,4.8300,-1.7500,1.0000,0.0000,0.0000,0,0,0
1671462692485,9.7789,1.7412,3.6213,-3.5000,1.4000,-1.1200,1.0000,0.0000,0.0000,0,0,0
1671462692595,9.6807,1.5831,3.7554,-1.4000,-1.0500,-0.6300,1.0000,0.0000,0.0000,0,0,0
1671462692703,9.5609,1.5783,3.7674,-0.7000,1.0500,-0.2100,1.0000,0.0000,0.0000,0,0,0
1671462692811,9.5034,1.6957,3.5327,1.4000,3.0100,-0.6300,1.0000,0.0000,0.0000,0,0,0
1671462692919,9.7046,1.7124,3.6955,0.0700,-4.4100,0.8400,1.0000,0.0000,0.0000,0,0,0
1671462693027,9.6807,1.6789,3.6452,-0.7700,1.6100,-1.4000,1.0000,0.0000,0.0000,0,0,0
1671462693138,9.5657,1.7292,3.4752,-0.8400,-2.2400,-1.0500,1.0000,0.0000,0.0000,0,0,0
1671462693251,9.5968,1.7388,3.6476,-0.7700,1.6800,0.6300,1.0000,0.0000,0.0000,0,0,0
1671462693361,9.4244,1.8011,3.6476,-0.3500,-3.2900,1.5400,1.0000,0.0000,0.0000,0,0,0
1671462693471,9.7214,1.8537,3.7147,-0.5600,2.1700,0.2800,1.0000,0.0000,0.0000,0,0,0
1671462693579,9.4819,1.7148,3.4871,-1.4000,-0.7000,0.7000,1.0000,0.0000,0.0000,0,1,0
1671462693688,10.0782,1.8514,3.5542,3.6400,0.4200,0.8400,1.0000,0.0000,0.0000,0,0,0
1671462693797,10.1429,1.8466,3.7698,0.7000,0.5600,0.2800,1.0000,0.0000,0.0000,0,0,0
1671462693907,10.4088,1.9783,4.0620,-1.0500,-2.1700,0.9800,1.0000,0.0000,0.0000,0,0,0
1671462694018,10.9069,1.9088,4.1530,0.8400,2.3100,-1.1200,1.0000,0.0000,0.0000,0,0,0
1671462694131,10.9812,2.0453,4.0715,-0.8400,-1.3300,-0.8400,1.0000,0.0000,0.0000,0,0,0
1671462694238,10.5620,2.0717,4.0452,-0.6300,-3.0800,2.0300,1.0001,0.0000,0.0000,0,0,0
1671462694348,9.7525,1.7723,3.6356,-0.4900,1.2600,2.1700,1.0001,0.0000,0.0000,0,0,0
1671462694461,9.4867,1.5999,3.4512,-0.0700,-3.1500,2.1000,1.0001,0.0000,0.0000,0,0,0
1671462694573,9.9154,1.7220,3.5686,2.2400,-6.1600,5.0400,1.0000,0.0000,0.0000,0,0,0
1671462694686,9.6232,1.7436,3.4081,5.1800,-0.1400,3.3600,1.0000,0.0000,0.0000,0,0,0
1671462694799,8.9885,1.5304,3.0081,6.7900,-3.7800,0.7000,1.0001,0.0000,0.0000,0,0,0
1671462694908,8.4951,1.4945,2.7758,9.1000,-3.2200,-0.7000,1.0000,0.0000,0.0000,0,0,0
1671462695020,6.5288,1.0921,2.0813,4.5500,2.1700,-1.0500,1.0000,0.0000,0.0000,0,0,0
1671462695132,7.7958,1.2143,2.5770,4.4800,4.6200,3.4300,1.0000,0.0000,0.0000,0,0,0
1671462695244,9.9777,1.7579,3.2932,0.7700,-8.6100,2.5200,1.0000,0.0000,0.0000,0,0,0
1671462695360,9.4795,1.5472,3.0513,0.4200,6.1600,2.6600,1.0000,0.0000,0.0000,0,0,0
1671462695474,9.6519,1.7340,2.8285,1.1200,-9.2400,3.3600,1.0000,0.0000,0.0000,1,0,0
1671462695586,9.6711,1.5903,2.9938,-0.3500,0.3500,-0.1400,1.0000,0.0000,0.0000,0,0,0
1671462695697,9.6447,1.5663,2.9962,0.0700,-3.2200,0.9100,1.0000,0.0000,0.0000,0,0,0
1671462695807,9.5897,1.5735,3.1231,-1.2600,3.8500,0.8400,1.0000,0.0000,0.0000,0,0,0
1671462695918,8.5694,1.4610,2.7519,-4.3400,10.5000,-2.5900,1.0000,0.0000,0.0000,0,0,0
1671462696030,8.2413,1.4562,2.4525,-3.6400,1.5400,-5.5300,1.0000,0.0000,0.0000,0,0,0
1671462696142,8.8041,1.4418,3.0297,-2.5900,-6.0200,-3.2200,1.0000,0.0000,0.0000,0,0,0
1671462696256,8.8161,1.5807,2.9147,-1.8200,7.5600,2.0300,1.0000,0.0000,0.0000,0,0,0
1671462696368,9.3094,1.7053,3.2453,-1.0500,-1.9600,-3.7800,1.0000,0.0000,0.0000,0,0,0
1671462696482,9.6304,1.7220,3.4536,-2.5900,6.3000,-5.5300,1.0000,0.0000,0.0000,0,0,0
1671462696598,9.9633,1.8897,3.4632,-2.2400,-1.3300,1.1200,1.0000,0.0000,0.0000,0,0,0
1671462696710,9.8028,1.8466,3.5231,-2.3800,-2.3800,1.3300,1.0000,0.0000,0.0000,0,0,0
1671462696823,9.7142,1.8394,3.5063,-1.7500,6.5100,-1.6100,1.0000,0.0000,0.0000,0,0,0
1671462696937,9.5825,1.8418,3.5806,-0.6300,3.5000,-3.6400,1.0000,0.0000,0.0000,0,0,0
1671462697049,9.6136,1.8418,3.8009,1.0500,3.0100,-1.6100,1.0000,0.0000,0.0000,0,0,0
1671462697162,9.5034,2.0741,3.5829,0.6300,-2.4500,-0.4200,1.0000,0.0000,0.0000,0,0,0
1671462697273,9.5873,1.9352,3.7075,-0.5600,-5.6000,0.3500,1.0000,0.0000,0.0000,0,0,0
1671462697386,9.8220,1.9328,3.5015,-1.1200,-0.4900,-1.5400,1.0000,0.0000,0.0000,0,0,0
1671462697496,9.5944,1.9400,3.5183,0.0000,-0.7700,-0.0700,1.0000,0.0000,0.0000,0,0,0
1671462697608,9.9489,2.0118,3.5374,0.5600,-3.3600,0.9100,1.0000,0.0000,0.0000,0,0,0
1671462697721,10.0567,1.9615,3.5662,-0.1400,-0.9100,2.1700,1.0001,0.0000,0.0000,0,0,0
1671462697833,9.6711,1.8777,3.5159,0.0700,-0.9800,0.9800,1.0000,0.0000,0.0000,0,0,0
1671462697945,9.5537,1.7412,3.5949,-1.4700,-0.6300,-0.4200,1.0000,0.0000,0.0000,0,0,0
1671462698057,10.3345,2.0214,3.6524,1.8200,-2.5200,0.2800,1.0000,0.0000,0.0000,0,1,0
1671462698171,10.9716,2.0837,3.7674,-2.8000,5.8800,-1.3300,1.0000,0.0000,0.0000,0,0,0
1671462698283,11.1464,2.3280,3.9518,-0.4200,2.0300,-0.9800,1.0000,0.0000,0.0000,0,0,0
1671462698396,10.5956,2.1100,3.8560,-1.2600,-1.6800,0.7000,1.0001,0.0000,0.0000,0,0,0
1671462698507,9.8651,1.9112,3.3937,2.1000,-3.8500,3.6400,1.0001,0.0000,0.0000,0,0,0
1671462698619,9.8747,1.8585,3.5686,1.6100,-3.6400,3.8500,1.0000,0.0000,0.0000,0,0,0
1671462698732,10.1285,1.9112,3.3674,1.1200,-7.0000,4.4800,1.0000,0.0000,0.0000,0,0,0
1671462698845,9.3717,1.5807,2.9674,2.5200,-4.6900,4.9700,1.0000,0.0000,0.0000,0,0,0
1671462698957,8.8759,1.5639,2.9315,3.0100,-7.2100,2.1000,1.0000,0.0000,0.0000,0,0,0
1671462699070,8.3323,1.3939,2.3998,2.4500,-5.5300,0.9800,1.0000,0.0000,0.0000,0,0,0
1671462699182,5.9181,0.9700,1.7340,3.1500,2.1700,-2.4500,1.0000,0.0000,0.0000,0,0,0
1671462699295,9.9657,1.7124,2.9602,3.0800,9.1700,7.6300,1.0000,0.0000,0.0000,0,0,0
1671462699406,9.5010,1.6262,2.9890,0.4900,5.6000,0.0000,1.0000,0.0000,0.0000,0,0,0
1671462699519,9.5418,1.6861,2.8549,0.4200,0.6300,0.0700,1.0000,0.0000,0.0000,1,0,0
1671462699632,9.5897,1.6047,3.1590,1.1200,-7.6300,1.5400,1.0000,0.0000,0.0000,0,0,0
1671462699749,9.6208,1.6693,3.0034,-1.6100,0.3500,-0.0700,1.0000,0.0000,0.0000,0,0,0
1671462699861,9.4603,1.5807,2.9890,-2.1000,3.1500,0.2800,1.0000,0.0000,0.0000,0,0,0
1671462699973,8.9023,1.5113,2.9435,-3.9900,5.7400,-1.8900,1.0000,0.0000,0.0000,0,0,0
1671462700084,8.9262,1.5184,2.8189,-5.1100,4.3400,-5.5300,1.0000,0.0000,0.0000,0,0,0
1671462700197,8.2676,1.4442,3.0656,-1.3300,6.1600,-3.7100,1.0000,0.0000,0.0000,0,0,0
1671462700309,8.1359,1.4705,2.8285,-1.8200,0.2800,-1.1900,1.0000,0.0000,0.0000,0,0,0
1671462700420,9.0364,1.7819,3.1974,-3.5000,-1.1900,-1.1900,1.0000,0.0000,0.0000,0,0,0
1671462700534,9.2208,1.7867,3.4967,-4.9000,5.8800,-2.0300,1.0000,0.0000,0.0000,0,0,0
1671462700646,9.4579,1.8585,4.1865,-12.6700,16.5200,-3.4300,0.9999,0.0000,0.0000,0,0,0
1671462700759,9.4364,1.6717,4.3901,-5.6000,15.8900,-4.0600,0.9999,0.0000,0.0000,0,0,0
1671462700872,9.3765,1.9088,4.6511,-8.9600,1.0500,1.9600,0.9999,0.0000,0.0000,0,0,0
1671462700991,9.3310,1.6741,4.3925,-3.0800,-5.7400,-1.1200,0.9999,0.0000,0.0000,0,0,0
1671462701103,9.6519,1.7699,4.5529,-0.9800,3.8500,1.8200,0.9999,0.0000,0.0000,0,0,0
1671462701215,9.4196,1.7579,4.2847,0.3500,0.7000,0.2800,0.9999,0.0000,0.0000,0,0,0
1671462701330,9.3358,1.6334,4.2176,-0.2800,1.3300,-0.9100,0.9999,0.0000,0.0000,0,0,0
1671462701444,9.3430,1.6837,4.3949,-0.9800,-4.1300,-0.5600,0.9999,0.0000,0.0000,0,0,0
1671462701555,9.4460,1.9759,4.4955,-3.4300,2.4500,-6.5100,0.9999,0.0000,0.0000,0,0,0
1671462701668,9.2903,1.7651,4.6439,-13.5100,-1.8200,-2.6600,0.9999,0.0000,0.0000,0,0,0
1671462701780,9.1418,2.1220,4.3877,-7.4200,-7.9800,1.7500,1.0000,0.0000,0.0000,0,1,0
1671462701893,9.1993,2.1268,4.8691,-12.3900,-4.6900,0.4900,1.0000,0.0000,0.0000,0,0,0
1671462702004,10.0687,0.2563,4.3015,-23.2400,9.5200,20.3700,1.0000,0.0000,0.0000,0,0,0
1671462702118,9.7190,0.7544,5.2930,4.5500,7.0700,21.4900,1.0000,0.0000,0.0000,0,0,0
1671462702231,10.9644,0.8383,4.8787,51.7300,10.8500,-3.9200,1.0001,0.0000,0.0000,0,0,0
1671462702343,9.6184,0.9891,4.8427,24.0100,-13.3700,-14.8400,1.0001,0.0000,0.0000,0,0,0
1671462702455,10.2052,1.1424,5.1277,-4.2000,-8.6100,-5.0400,1.0000,0.0000,0.0000,0,0,0
1671462702567,9.8268,1.5496,4.6392,0.1400,-7.0700,3.0100,1.0000,0.0000,0.0000,0,0,0
1671462702679,9.6280,1.4131,4.4188,1.1200,-8.0500,0.9100,1.0000,0.0000,0.0000,0,0,0
1671462702794,9.7046,0.7688,4.5002,27.0900,-1.1900,4.1300,1.0000,0.0000,0.0000,0,0,0
1671462702908,9.1945,1.4466,3.9087,11.3400,-4.0600,5.7400,1.0000,0.0000,0.0000,0,0,0
1671462703020,8.4592,1.3029,3.9733,22.5400,2.5900,5.5300,1.0000,0.0000,0.0000,0,0,0
1671462703132,8.1215,1.2813,3.5063,29.4000,18.8300,6.6500,1.0000,0.0000,0.0000,0,0,0
1671462703244,5.7648,1.1376,1.6238,11.9700,6.5100,-1.7500,1.0000,0.0000,0.0000,0,0,0
1671462703357,9.4460,1.7915,4.3853,-7.5600,-1.6800,9.4500,1.0001,0.0000,0.0000,0,0,0
1671462703470,9.0580,1.2622,4.9745,-7.0700,0.6300,2.3800,1.0001,0.0000,0.0000,0,0,0
1671462703583,8.8664,1.4753,3.9494,-1.1900,-0.4200,2.8000,1.0001,0.0000,0.0000,1,0,0
1671462703695,9.7717,1.7915,3.4584,-21.0000,-31.0800,-1.4700,1.0001,0.0000,0.0000,0,0,0
1671462703807,9.5154,1.3316,4.3901,-13.9300,-9.1000,-1.8900,1.0001,0.0000,0.0000,0,0,0
1671462703919,9.4795,1.3436,3.8656,0.4200,5.1100,-0.4900,1.0000,0.0000,0.0000,0,0,0
1671462704030,9.2951,1.4514,3.7889,5.9500,11.6900,0.4900,1.0000,0.0000,0.0000,0,0,0
1671462704141,9.2544,1.3771,3.5614,-9.8700,-8.8900,1.4000,1.0000,0.0000,0.0000,0,0,0
1671462704253,9.2472,1.4753,3.4081,-2.3800,-10.5000,2.7300,0.9999,0.0000,0.0000,0,0,0
1671462704366,8.6987,1.2406,3.0728,-10.5700,-8.8200,-2.5900,0.9999,0.0000,0.0000,0,0,0
1671462704478,7.9970,1.1209,2.7399,-5.2500,-3.0100,-3.9200,0.9999,0.0000,0.0000,0,0,0
1671462704590,8.1239,1.2670,2.8620,-3.0100,6.4400,-3.5000,0.9999,0.0000,0.0000,0,0,0
1671462704703,9.2975,1.2358,3.3770,-1.8900,6.9300,-1.6800,0.9999,0.0000,0.0000,0,0,0
1671462704815,9.5489,1.3939,3.8105,-4.4100,3.0100,-5.1100,0.9999,0.0000,0.0000,0,0,0
1671462704927,9.5442,1.4681,3.8991,-3.9200,4.6200,-2.6600,0.9999,0.0000,0.0000,0,0,0
1671462705039,9.8004,1.5544,4.0428,-4.5500,6.3700,-1.1900,0.9999,0.0000,0.0000,0,0,0
1671462705151,9.7286,1.5137,4.0931,-3.0100,1.2600,-2.0300,0.9999,0.0000,0.0000,0,0,0
1671462705262,9.7070,1.6023,4.0643,-0.2800,4.1300,-0.3500,0.9999,0.0000,0.0000,0,0,0
1671462705375,9.5705,1.6478,4.1027,0.7700,3.4300,-3.1500,0.9999,0.0000,0.0000,0,0,0
1671462705487,9.8747,1.6334,4.4643,-2.1700,-1.0500,-2.8000,0.9999,0.0000,0.0000,0,0,0
1671462705601,9.7501,1.6238,4.3949,0.4900,3.9200,-2.0300,0.9999,0.0000,0.0000,0,0,0
1671462705713,9.9992,1.8154,4.5745,0.0000,-0.7000,1.0500,1.0000,0.0000,0.0000,0,0,0
1671462705826,10.0136,1.7244,4.3781,1.4700,2.5200,2.0300,1.0000,0.0000,0.0000,0,0,0
1671462705938,9.2999,1.7292,4.2416,0.7000,-5.5300,3.2200,1.0000,0.0000,0.0000,0,0,0
1671462706051,9.9369,1.8705,4.1889,-0.9800,-9.8700,3.5000,1.0000,0.0000,0.0000,0,0,0
1671462706162,13.4361,2.1603,5.7361,-5.0400,-16.1000,1.8200,1.0000,0.0000,0.0000,0,0,0
1671462706274,11.2734,1.6047,4.4428,2.1700,5.2500,1.4000,1.0000,0.0000,0.0000,0,1,0
1671462706387,10.0279,1.5951,3.9206,2.1700,-5.0400,-1.8200,1.0000,0.0000,0.0000,0,0,0
1671462706500,9.9848,1.5496,3.9015,-0.4200,-5.8800,4.2700,0.9999,0.0000,0.0000,0,0,0
1671462706613,9.7860,1.4466,3.5255,2.8000,-0.2100,3.3600,1.0000,0.0000,0.0000,0,0,0
1671462706727,9.2663,1.4250,3.2884,3.5700,-5.9500,2.4500,1.0000,0.0000,0.0000,0,0,0
1671462706840,8.5335,1.1903,3.0872,1.6100,-5.3200,3.2900,1.0000,0.0000,0.0000,0,0,0
1671462706952,5.7504,0.7904,2.1459,4.2000,-6.7900,-1.1200,1.0000,0.0000,0.0000,0,0,0
1671462707063,6.5408,0.4383,2.1100,8.2600,15.1200,-2.1700,1.0000,0.0000,0.0000,0,0,0
1671462707176,9.9968,1.7220,3.5303,1.4000,1.6100,3.6400,1.0000,0.0000,0.0000,0,0,0
1671462707289,9.5250,1.3676,3.3602,-1.2600,-9.1700,-1.2600,1.0000,0.0000,0.0000,0,0,0
1671462707402,9.5250,1.4011,3.3842,1.8200,-7.2100,4.0600,1.0000,0.0000,0.0000,1,0,0
1671462707517,9.7238,1.3316,3.1303,0.2100,-1.8200,1.7500,1.0000,0.0000,0.0000,0,0,0
1671462707632,9.6328,1.4083,3.1399,-0.8400,0.0000,-0.0700,1.0000,0.0000,0.0000,0,0,0
1671462707743,9.6423,1.3268,3.1902,-1.4000,2.9400,0.3500,1.0000,0.0000,0.0000,0,0,0
1671462707855,8.8592,1.2239,3.0345,0.4900,-0.5600,5.1800,1.0000,0.0000,0.0000,0,0,0
1671462707967,8.3490,1.2047,2.9028,-4.1300,4.9700,-1.8200,1.0000,0.0000,0.0000,0,0,0
1671462708079,7.5204,1.0131,2.5052,-6.8600,-3.7100,-11.5500,1.0000,0.0000,0.0000,0,0,0
1671462708192,7.8006,1.0514,2.8333,-3.2900,6.9300,-0.9800,1.0000,0.0000,0.0000,0,0,0
1671462708305,8.6053,1.4322,3.0010,-1.5400,1.6800,-1.1900,1.0000,0.0000,0.0000,0,0,0
1671462708421,10.0639,1.5352,3.8584,-3.3600,4.9000,-4.4100,1.0000,0.0000,0.0000,0,0,0
1671462708533,10.3752,1.6717,3.9518,-3.7100,4.7600,-4.1300,0.9999,0.0000,0.0000,0,0,0
1671462708644,9.9920,1.6550,3.9111,-2.3100,-1.1900,-1.8200,0.9999,0.0000,0.0000,0,0,0
1671462708756,10.0782,1.6957,3.8488,-0.9800,-2.2400,2.5900,1.0000,0.0000,0.0000,0,0,0
1671462708868,9.9920,1.7076,3.9111,-1.0500,-3.1500,0.1400,1.0000,0.0000,0.0000,0,0,0
1671462708981,9.9130,1.5544,3.7338,0.7700,0.9100,-1.4000,0.9999,0.0000,0.0000,0,0,0
1671462709093,9.3621,1.5592,3.5949,0.0000,2.5900,-2.5900,1.0000,0.0000,0.0000,0,0,0
1671462709205,9.7405,1.6023,3.8584,-0.7700,5.2500,-3.2900,1.0000,0.0000,0.0000,0,0,0
1671462709316,10.1453,1.6310,3.9111,1.1900,-10.7800,3.9900,1.0000,0.0000,0.0000,0,0,0
1671462709428,10.7920,1.8897,4.1434,2.0300,-7.9800,2.7300,1.0000,0.0000,0.0000,0,0,0
1671462709539,9.8675,1.6550,3.4824,-1.3300,4.4100,0.6300,1.0000,0.0000,0.0000,0,0,0
1671462709652,8.9214,1.4250,3.4273,-4.6900,3.1500,-3.3600,1.0000,0.0000,0.0000,0,0,0
1671462709763,9.4747,1.4394,3.5829,-0.8400,-0.7000,0.2100,1.0000,0.0000,0.0000,0,0,0
1671462709875,10.2435,1.6933,3.9206,-0.9100,-1.6100,3.3600,1.0000,0.0000,0.0000,0,0,0
1671462709987,11.2470,1.6550,4.4308,-0.9800,2.7300,-2.1000,1.0000,0.0000,0.0000,0,0,0
1671462710099,11.3739,2.0406,4.3039,-1.9600,8.6800,-1.3300,1.0000,0.0000,0.0000,0,1,0
1671462710210,10.6890,1.7651,4.6559,-1.8900,7.6300,-3.9900,0.9999,0.0000,0.0000,0,0,0
1671462710320,9.8531,1.4490,3.9183,-0.7700,6.7900,-0.4900,0.9999,0.0000,0.0000,0,0,0
1671462710433,9.4316,1.5352,4.2655,-0.6300,-6.5800,6.0200,0.9999,0.0000,0.0000,0,0,0
1671462710544,10.1860,1.6502,4.0955,4.1300,-4.4800,2.9400,0.9999,0.0000,0.0000,0,0,0
1671462710658,9.9274,1.6095,3.9350,4.7600,-8.2600,5.4600,1.0000,0.0000,0.0000,0,0,0
1671462710772,9.2232,1.4226,3.4057,7.7700,-12.6000,2.9400,1.0000,0.0000,0.0000,0,0,0
1671462710884,4.7709,0.6347,1.5304,5.4600,-11.6200,0.5600,1.0000,0.0000,0.0000,0,0,0
1671462710996,5.3768,0.7257,2.2417,1.5400,-0.1400,0.4200,1.0000,0.0000,0.0000,0,0,0
1671462711108,11.1776,2.0334,3.8488,2.5900,27.5800,7.7000,1.0000,0.0000,0.0000,0,0,0
1671462711220,9.0077,1.1712,3.2692,1.1200,-6.3700,3.9900,1.0000,0.0000,0.0000,0,0,0
1671462711331,9.6615,1.7508,3.4895,1.1900,-7.5600,5.1800,1.0000,0.0000,0.0000,1,0,0
1671462711443,9.5873,1.1831,3.1686,-1.6800,-5.4600,-0.3500,1.0000,0.0000,0.0000,0,0,0
1671462711555,9.2472,1.2454,3.2261,-3.9200,-2.3100,1.6100,1.0000,0.0000,0.0000,0,0,0
1671462711668,9.0939,1.2358,2.9147,-1.1900,2.4500,0.9800,0.9999,0.0000,0.0000,0,0,0
1671462711780,8.5095,1.0682,2.8046,-2.9400,-7.3500,-2.5200,0.9999,0.0000,0.0000,0,0,0
1671462711892,7.6473,0.9963,2.6800,-3.0100,9.1000,-8.6800,0.9999,0.0000,0.0000,0,0,0
1671462712004,7.8149,1.0754,2.6561,-3.4300,5.8100,-6.1600,0.9999,0.0000,0.0000,0,0,0
1671462712115,9.3741,1.4658,3.5470,-1.9600,6.0200,-7.2800,0.9999,0.0000,0.0000,0,0,0
1671462712227,9.5298,1.5280,3.6285,-3.4300,4.1300,-4.2700,0.9999,0.0000,0.0000,0,0,0
1671462712340,9.7884,1.6190,3.7338,-2.3800,-4.5500,0.7700,0.9999,0.0000,0.0000,0,0,0
1671462712452,9.8292,1.6813,3.8105,-0.2100,-13.0900,1.1900,0.9999,0.0000,0.0000,0,0,0
1671462712564,10.2651,1.5831,3.7865,-0.9800,3.4300,-0.2800,1.0000,0.0000,0.0000,0,0,0
1671462712676,9.9824,1.5903,3.5303,-0.9100,-1.6800,0.1400,0.9999,0.0000,0.0000,0,0,0
1671462712788,10.0471,1.6717,3.5518,0.0000,-3.1500,0.0000,1.0000,0.0000,0.0000,0,0,0
1671462712901,10.0830,1.6334,3.4416,0.2100,2.5200,-2.3100,1.0000,0.0000,0.0000,0,0,0
1671462713013,9.6208,1.6047,3.5015,-1.4700,2.7300,-1.6100,1.0000,0.0000,0.0000,0,0,0
1671462713126,10.1812,1.5639,3.6476,0.2800,0.2100,-0.7700,0.9999,0.0000,0.0000,0,0,0
1671462713238,10.9117,1.7124,3.8704,-0.2100,-2.5900,0.6300,0.9999,0.0000,0.0000,0,0,0
1671462713350,9.5561,1.3915,3.8392,-0.9100,-7.2100,0.8400,0.9999,0.0000,0.0000,0,0,0
1671462713463,9.4100,1.4394,3.3722,-3.0100,3.0800,-1.6100,0.9999,0.0000,0.0000,0,0,0
1671462713576,9.6735,1.6214,3.4081,-0.6300,2.1000,0.6300,0.9999,0.0000,0.0000,0,0,0
1671462713688,11.1129,1.7915,3.8201,0.5600,-3.9900,2.1700,0.9999,0.0000,0.0000,0,0,0
1671462713800,11.3644,1.9112,3.8512,-1.1900,4.6200,-0.7700,0.9999,0.0000,0.0000,0,1,0
1671462713914,10.9428,1.7795,3.7290,1.1200,5.3900,-3.4300,0.9999,0.0000,0.0000,0,0,0
1671462714026,9.8340,1.6909,3.7769,0.9100,6.8600,-2.2400,0.9999,0.0000,0.0000,0,0,0
1671462714138,9.7860,1.5232,3.6835,-1.4700,-6.5100,0.7700,0.9999,0.0000,0.0000,0,0,0
1671462714249,9.4076,1.5160,3.5853,4.5500,2.5900,1.1900,0.9999,0.0000,0.0000,0,0,0
1671462714362,9.5346,1.6310,3.5806,3.7100,-6.5100,4.7600,0.9999,0.0000,0.0000,0,0,0
1671462714474,9.1178,1.4394,3.2453,4.2000,-6.5800,3.2200,1.0000,0.0000,0.0000,0,0,0
1671462714586,8.7610,1.3723,3.0417,3.2200,-4.7600,2.9400,1.0000,0.0000,0.0000,0,0,0
1671462714699,7.6329,1.1712,2.3327,2.2400,-9.1000,1.6100,1.0000,0.0000,0.0000,0,0,0
1671462714812,6.3324,0.6993,1.8202,1.5400,-4.6900,3.7800,1.0000,0.0000,0.0000,0,0,0
1671462714925,10.5070,1.7699,3.1854,2.8000,2.9400,7.8400,1.0000,0.0000,0.0000,0,0,0
1671462715036,9.6280,1.2071,2.9794,0.0700,1.6800,-0.4200,1.0000,0.0000,0.0000,1,0,0
1671462715148,9.6998,1.2502,2.9578,1.4700,-1.4000,2.4500,1.0000,0.0000,0.0000,0,0,0
1671462715260,9.7310,1.3676,3.0704,-0.2100,-3.5000,0.1400,1.0000,0.0000,0.0000,0,0,0
1671462715372,9.4268,1.1568,2.8908,-1.0500,2.1700,-0.7000,1.0000,0.0000,0.0000,0,0,0
1671462715483,8.3442,1.2071,2.5004,0.3500,1.8200,0.7700,1.0000,0.0000,0.0000,0,0,0
1671462715595,7.9539,1.0251,2.5148,-2.7300,4.3400,0.4900,1.0000,0.0000,0.0000,0,0,0
1671462715706,6.9575,0.7975,2.2130,-3.7100,1.9600,-5.1800,1.0000,0.0000,0.0000,0,0,0
1671462715819,9.0987,1.2334,3.0057,-3.3600,5.4600,-2.4500,1.0000,0.0000,0.0000,0,0,0
1671462715932,9.9489,1.2813,3.4800,-4.6900,6.1600,-6.0200,1.0000,0.0000,0.0000,0,0,0
1671462716045,10.1621,1.4969,3.3650,-2.7300,3.5000,-3.3600,1.0000,0.0000,0.0000,0,0,0
1671462716157,10.1956,1.6382,3.7865,-2.1000,-0.2800,-4.8300,0.9999,0.0000,0.0000,0,0,0
1671462716269,9.7501,1.5831,3.4919,-0.3500,1.3300,-1.6100,0.9999,0.0000,0.0000,0,0,0
1671462716381,10.0998,1.6190,3.7865,-1.1200,-4.4800,0.0700,0.9999,0.0000,0.0000,0,0,0
1671462716492,10.1166,1.4921,3.5710,1.3300,2.7300,-0.2100,1.0000,0.0000,0.0000,0,0,0
1671462716604,10.2243,1.6286,3.7219,0.2800,-0.7700,0.6300,1.0000,0.0000,0.0000,0,0,0
1671462716717,10.3968,1.6334,3.6764,0.3500,-0.7700,1.3300,1.0000,0.0000,0.0000,0,0,0
1671462716830,11.2853,1.7699,3.9278,-1.3300,-8.2600,2.1700,1.0000,0.0000,0.0000,0,0,0
1671462716941,10.1118,1.6597,3.4177,0.5600,1.6800,-1.4000,1.0000,0.0000,0.0000,0,0,0
1671462717048,8.9478,1.2382,3.1710,-2.2400,7.0700,-1.7500,1.0000,0.0000,0.0000,0,0,0
1671462717154,9.3621,1.4825,3.3363,-2.1000,-2.6600,0.0700,1.0000,0.0000,0.0000,0,0,0
1671462717260,9.7022,1.4945,3.3219,-0.4200,-1.8900,2.5200,1.0000,0.0000,0.0000,0,0,0
1671462717368,10.3728,1.5280,3.6524,-0.2800,1.5400,2.1000,1.0000,0.0000,0.0000,0,0,0
1671462717476,12.9810,1.9807,4.6847,-2.6600,-1.4000,-0.1400,1.0000,0.0000,0.0000,0,0,0
1671462717583,11.8410,1.8633,4.1601,0.4200,4.2700,-2.2400,1.0000,0.0000,0.0000,0,1,0
1671462717690,10.1285,1.7460,3.5446,-3.7100,6.9300,-3.6400,1.0000,0.0000,0.0000,0,0,0
1671462717798,9.6831,1.5280,3.6021,-1.4700,7.7000,0.5600,1.0000,0.0000,0.0000,0,0,0
1671462717905,9.3166,1.4729,3.5207,0.0000,-3.7800,3.2900,1.0000,0.0000,0.0000,0,0,0
1671462718012,9.8819,1.4993,3.6668,1.8200,-6.6500,3.0100,1.0000,0.0000,0.0000,0,0,0
1671462718119,8.9670,1.4370,3.2285,1.9600,-7.1400,3.7800,1.0000,0.0000,0.0000,0,0,0
1671462718226,8.7873,1.1951,2.9243,5.5300,-6.5100,3.1500,1.0000,0.0000,0.0000,0,0,0
1671462718333,8.5694,1.1736,2.5842,6.0200,-5.1800,3.8500,1.0000,0.0000,0.0000,0,0,0
1671462718440,5.5948,0.6059,2.0094,5.4600,-6.9300,1.8200,1.0001,0.0000,0.0000,0,0,0
1671462718547,8.6748,1.0490,2.6776,4.9000,14.4900,6.6500,1.0001,0.0000,0.0000,0,0,0
1671462718655,9.9585,1.5999,3.6117,0.4200,0.1400,-1.7500,1.0001,0.0000,0.0000,0,0,0
1671462718761,9.1777,1.0778,3.2357,-1.5400,5.1800,-2.7300,1.0001,0.0000,0.0000,0,0,0
1671462718867,9.7381,1.3364,3.2117,0.5600,-8.3300,3.8500,1.0001,0.0000,0.0000,0,0,0
1671462718978,9.6591,1.3484,3.2500,0.7000,1.9600,-2.1000,1.0001,0.0000,0.0000,0,0,0
1671462719084,9.5849,1.2933,3.1950,-0.2100,0.9100,0.2800,1.0001,0.0000,0.0000,0,0,0
1671462719196,9.5849,1.3149,3.1063,0.0000,1.6100,-0.1400,1.0001,0.0000,0.0000,1,0,0
1671462719307,9.4747,1.3077,3.1758,0.0000,-1.6100,2.0300,1.0001,0.0000,0.0000,0,0,0
1671462719420,9.1490,1.1496,3.1614,-1.4700,-0.3500,4.2000,1.0001,0.0000,0.0000,0,0,0
1671462719533,8.5311,1.0610,2.6273,-0.9800,0.4200,3.8500,1.0001,0.0000,0.0000,0,0,0
1671462719640,7.3264,1.0323,2.3998,-5.6000,2.1700,-10.3600,1.0001,0.0000,0.0000,0,0,0
1671462719752,7.7191,0.9915,2.6848,-2.6600,5.7400,-3.2200,1.0001,0.0000,0.0000,0,0,0
1671462719864,9.2615,1.3891,3.1686,-4.0600,0.2100,0.5600,1.0001,0.0000,0.0000,0,0,0
1671462719976,9.9465,1.3460,3.3530,-1.1200,1.3300,2.1700,1.0000,0.0000,0.0000,0,0,0
1671462720090,10.0279,1.3891,3.6428,-1.8900,3.0100,-3.5700,1.0000,0.0000,0.0000,0,0,0
1671462720198,9.8172,1.4083,3.3698,-1.8900,-0.5600,-4.2000,1.0000,0.0000,0.0000,0,0,0
1671462720304,10.0136,1.4418,3.6835,-4.0600,-7.8400,-3.5700,1.0000,0.0000,0.0000,0,0,0
1671462720411,10.0735,1.5280,3.5997,-1.4700,2.1000,-3.1500,1.0000,0.0000,0.0000,0,0,0
1671462720517,10.0375,1.2670,3.6261,-1.5400,2.3100,0.6300,1.0000,0.0000,0.0000,0,0,0
1671462720623,9.8172,1.4155,3.3794,2.2400,-2.7300,3.0800,1.0000,0.0000,0.0000,0,0,0
1671462720729,10.8279,1.7579,3.6093,0.4900,-5.0400,0.4200,1.0001,0.0000,0.0000,0,0,0
1671462720835,12.1140,1.6741,3.8608,-1.8900,-8.9600,0.8400,1.0001,0.0000,0.0000,0,0,0
1671462720940,10.3465,1.5160,3.6907,-2.6600,3.5700,-1.0500,1.0000,0.0000,0.0000,0,0,0
1671462721047,8.7251,1.0778,2.9746,-2.0300,4.2700,-2.5900,1.0001,0.0000,0.0000,0,0,0
1671462721154,9.1801,1.2694,3.1734,-2.7300,5.6000,-0.7700,1.0000,0.0000,0.0000,0,0,0
1671462721259,9.0220,1.3292,2.9986,0.2100,7.9800,0.1400,1.0000,0.0000,0.0000,0,1,0
1671462721366,10.8494,1.4394,4.0596,-4.3400,-2.1700,-2.7300,1.0000,0.0000,0.0000,0,0,0
1671462721472,12.7152,1.9639,4.4068,0.4200,8.3300,3.5700,1.0001,0.0000,0.0000,0,0,0
1671462721578,12.0014,1.8801,4.7421,-0.3500,-4.3400,-0.7700,1.0001,0.0000,0.0000,0,0,0
1671462721684,10.3848,1.5711,3.5782,0.5600,10.4300,-4.6900,1.0001,0.0000,0.0000,0,0,0
1671462721794,9.1274,1.3819,3.5686,-0.8400,6.7200,-4.2700,1.0001,0.0000,0.0000,0,0,0
1671462721907,9.3238,1.4753,3.6835,-2.5900,1.2600,-1.6100,1.0001,0.0000,0.0000,0,0,0
1671462722019,9.5537,1.5113,3.6644,3.7100,-3.1500,1.6100,1.0001,0.0000,0.0000,0,0,0
1671462722131,9.4531,1.4035,3.5710,1.4700,-11.9700,5.6000,1.0001,0.0000,0.0000,0,0,0
1671462722244,8.7945,1.2095,3.3554,3.2200,-5.6000,0.7000,1.0001,0.0000,0.0000,0,0,0
1671462722356,8.3778,1.1760,3.0369,9.1700,-5.6000,5.1100,1.0001,0.0000,0.0000,0,0,0
1671462722471,6.1097,0.7951,2.1004,9.9400,-2.9400,-0.8400,1.0001,0.0000,0.0000,0,0,0
1671462722583,8.3993,1.0346,3.0513,3.7100,9.6600,5.0400,1.0001,0.0000,0.0000,0,0,0
1671462722695,9.5010,1.4681,3.5758,1.8200,-4.1300,-1.4700,1.0001,0.0000,0.0000,0,0,0
1671462722809,9.4196,1.3292,3.3171,1.5400,9.2400,0.0000,1.0001,0.0000,0.0000,0,0,0
1671462722922,9.5226,1.4610,3.5949,-0.9100,-9.4500,2.0300,1.0001,0.0000,0.0000,1,0,0
1671462723035,9.5010,1.4921,3.4416,0.2800,-1.2600,-0.7000,1.0001,0.0000,0.0000,0,0,0
1671462723147,9.4220,1.3149,3.3387,-0.1400,-0.1400,1.2600,1.0001,0.0000,0.0000,0,0,0
1671462723258,9.0460,1.3532,3.2884,-2.1700,2.1000,3.8500,1.0001,0.0000,0.0000,0,0,0
1671462723371,8.6412,1.3939,2.8692,-7.0700,2.9400,-1.4000,1.0001,0.0000,0.0000,0,0,0
1671462723482,7.4988,1.2071,2.6776,-6.7200,-8.1200,-7.2800,1.0001,0.0000,0.0000,0,0,0
1671462723595,6.9527,1.0131,2.3950,-3.0100,13.6500,-1.8900,1.0000,0.0000,0.0000,0,0,0
1671462723708,9.3094,1.3795,3.4369,-5.3900,3.4300,-0.3500,1.0000,0.0000,0.0000,0,0,0
1671462723820,9.9417,1.4131,3.9398,-3.5000,5.6700,-4.6900,1.0000,0.0000,0.0000,0,0,0
1671462723933,10.3034,1.6837,3.9566,0.7000,1.0500,-0.6300,1.0000,0.0000,0.0000,0,0,0
1671462724044,9.7884,1.4849,3.8344,-1.1900,-5.8800,-2.3100,1.0000,0.0000,0.0000,0,0,0
1671462724157,9.7142,1.5448,3.7171,-0.8400,-5.0400,0.3500,1.0000,0.0000,0.0000,0,0,0
1671462724269,9.9944,1.5807,3.8440,-0.1400,0.6300,-1.6800,1.0000,0.0000,0.0000,0,0,0
1671462724382,10.3656,1.6430,3.8919,1.0500,-0.4900,1.6100,1.0000,0.0000,0.0000,0,0,0
1671462724496,11.0339,1.7915,4.1027,0.4200,-4.9000,1.6800,1.0000,0.0000,0.0000,0,0,0
1671462724608,10.2195,1.5639,3.8440,0.7000,-0.3500,-0.4900,1.0000,0.0000,0.0000,0,0,0
1671462724719,9.9848,1.5807,3.7314,-1.0500,-4.3400,1.2600,1.0000,0.0000,0.0000,0,0,0
1671462724831,9.7166,1.5544,3.5087,0.1400,0.7000,-0.4200,1.0000,0.0000,0.0000,0,0,0
1671462724943,9.4100,1.4586,3.5422,0.0700,1.1200,-0.2800,1.0000,0.0000,0.0000,0,0,0
1671462725056,8.9358,1.3963,3.2596,-0.2800,4.6200,0.0000,1.0000,0.0000,0.0000,0,1,0
1671462725167,8.8975,1.5065,3.2165,-3.6400,-0.5600,0.8400,1.0000,0.0000,0.0000,0,0,0
1671462725279,10.7273,1.6693,4.0955,-1.1200,-2.1700,-0.3500,1.0000,0.0000,0.0000,0,0,0
1671462725390,12.1164,2.0022,4.2128,0.7700,-0.0700,4.2000,1.0000,0.0000,0.0000,0,0,0
1671462725503,11.7452,1.7963,4.8739,-0.6300,-1.5400,-1.8900,1.0000,0.0000,0.0000,0,0,0
1671462725614,10.2219,1.5903,4.0572,-1.8200,3.6400,-0.4900,1.0000,0.0000,0.0000,0,0,0
1671462725726,9.3334,1.4250,3.3147,-0.5600,4.1300,-0.1400,1.0000,0.0000,0.0000,0,0,0
1671462725838,9.1418,1.2430,3.7410,2.1000,4.5500,-2.8000,1.0000,0.0000,0.0000,0,0,0
1671462725950,9.1609,1.4155,3.3578,7.9800,0.6300,0.0700,1.0000,0.0000,0.0000,0,0,0
1671462726061,9.2065,1.5663,3.7578,7.0700,-8.4000,2.5900,1.0000,0.0000,0.0000,0,0,0
1671462726173,8.9622,1.4202,3.0920,5.6700,-8.6100,2.1000,1.0000,0.0000,0.0000,0,0,0
1671462726284,8.6987,1.1664,3.0489,2.7300,-5.7400,3.7100,1.0000,0.0000,0.0000,0,0,0
1671462726397,6.7923,0.9820,2.3304,1.6800,-7.2800,2.1700,1.0000,0.0000,0.0000,0,0,0
1671462726509,7.4677,0.8454,2.4765,3.0100,0.7700,5.1800,1.0000,0.0000,0.0000,0,0,0
1671462726621,9.7693,1.5089,3.3698,1.4700,-6.5100,2.0300,1.0000,0.0000,0.0000,0,0,0
1671462726732,9.6064,1.2502,3.1087,-0.5600,9.6600,-1.4700,1.0000,0.0000,0.0000,0,0,0
1671462726843,9.5130,1.2909,3.1854,-0.4900,-8.4000,1.6100,1.0000,0.0000,0.0000,0,0,0
1671462726956,9.5968,1.4993,3.1902,1.6100,0.2100,0.7000,1.0000,0.0000,0.0000,1,0,0
1671462727068,9.6112,1.2933,3.1758,0.1400,-0.5600,0.5600,1.0000,0.0000,0.0000,0,0,0
1671462727180,9.5010,1.2454,3.0896,-1.2600,-1.3300,1.9600,1.0000,0.0000,0.0000,0,0,0
1671462727294,8.9071,1.2310,2.9483,-2.3800,2.4500,1.4700,1.0000,0.0000,0.0000,0,0,0
1671462727406,8.1000,1.1257,2.2346,0.2800,-1.4000,-2.3800,1.0000,0.0000,0.0000,0,0,0
1671462727518,7.0318,0.7951,2.3854,-7.0700,-6.3700,-10.3600,1.0000,0.0000,0.0000,0,0,0
1671462727631,7.9467,0.9412,2.7040,-6.2300,14.4200,0.4200,1.0000,0.0000,0.0000,0,0,0
1671462727743,9.7860,1.4753,3.4369,-6.2300,6.7200,-3.5700,0.9999,0.0000,0.0000,0,0,0
1671462727853,10.1285,1.3029,3.7674,-3.3600,0.7700,-4.0600,0.9999,0.0000,0.0000,0,0,0
1671462727966,10.0327,1.4394,3.5925,-0.1400,-1.8200,-0.5600,0.9999,0.0000,0.0000,0,0,0
1671462728078,10.0256,1.5400,3.8368,-0.3500,-0.2100,-0.7000,0.9999,0.0000,0.0000,0,0,0
1671462728191,10.2387,1.6023,3.9566,-1.1200,3.7800,-3.4300,0.9999,0.0000,0.0000,0,0,0
1671462728302,10.1118,1.4179,3.9638,-0.5600,-1.1200,0.3500,0.9999,0.0000,0.0000,0,0,0
1671462728414,10.0758,1.6885,3.8895,1.1900,-0.2800,-0.0700,1.0000,0.0000,0.0000,0,0,0
1671462728526,10.2914,1.8178,3.5159,0.2100,1.6100,2.2400,0.9999,0.0000,0.0000,0,0,0
1671462728637,10.1740,1.6789,3.6380,0.4900,-5.1100,2.5900,0.9999,0.0000,0.0000,0,0,0
1671462728749,9.9777,1.5400,3.9230,0.0700,-3.5000,1.1900,0.9999,0.0000,0.0000,0,0,0
1671462728860,9.3885,1.3915,3.4321,0.0000,2.3800,-2.3100,1.0000,0.0000,0.0000,0,0,0
1671462728975,9.6687,1.6190,3.5350,-3.0800,-0.2100,-2.8700,1.0000,0.0000,0.0000,0,0,0
1671462729089,9.1562,1.4705,3.4919,-0.2800,6.7900,-0.9800,1.0000,0.0000,0.0000,0,0,0
1671462729202,9.6112,1.4586,3.8201,-1.1200,2.6600,-1.2600,1.0000,0.0000,0.0000,0,0,0
1671462729313,9.8819,1.6933,3.8225,-0.1400,1.6800,-0.2800,1.0000,0.0000,0.0000,0,0,0
1671462729425,9.6950,1.4873,3.6907,-1.3300,-3.8500,3.4300,1.0000,0.0000,0.0000,0,0,0
1671462729538,10.9333,1.6550,4.2991,-0.8400,-5.9500,3.2900,1.0000,0.0000,0.0000,0,1,0
1671462729649,10.0687,1.6047,3.9111,1.8900,-9.5200,0.0000,1.0000,0.0000,0.0000,0,0,0
1671462729761,11.4171,1.6358,3.7243,-1.6100,-8.4700,1.6100,1.0000,0.0000,0.0000,0,0,0
1671462729873,10.8758,1.5903,3.7123,3.1500,-2.5900,0.3500,1.0000,0.0000,0.0000,0,0,0
1671462729984,10.1812,1.5376,3.1495,0.8400,-6.3000,1.4000,1.0000,0.0000,0.0000,0,0,0
1671462730097,10.0184,1.3101,3.3195,2.5900,3.9900,-2.6600,1.0000,0.0000,0.0000,0,0,0
1671462730208,10.0495,1.2789,3.2692,2.8000,-0.9800,0.5600,1.0000,0.0000,0.0000,0,0,0
1671462730320,10.0208,1.3244,3.3171,2.5200,-7.0700,3.7100,1.0000,0.0000,0.0000,0,0,0
1671462730432,9.5178,1.3891,2.8141,3.7100,-2.3800,0.6300,1.0000,0.0000,0.0000,0,0,0
1671462730544,7.1180,0.9939,2.2034,1.7500,-4.9000,0.4900,1.0000,0.0000,0.0000,0,0,0
1671462730657,5.4271,0.5341,1.7412,4.5500,4.3400,-1.8900,1.0000,0.0000,0.0000,0,0,0
1671462730769,10.1788,1.3053,2.9914,5.9500,2.5200,8.6800,1.0000,0.0000,0.0000,0,0,0
1671462730881,9.5202,1.3532,3.0034,1.8900,2.4500,-1.7500,1.0000,0.0000,0.0000,0,0,0
1671462730993,9.6136,1.1855,2.9914,2.5200,1.5400,-0.1400,1.0000,0.0000,0.0000,0,0,0
1671462731106,9.7022,1.4370,2.9746,3.0100,-5.3200,1.0500,1.0000,0.0000,0.0000,0,0,0
1671462731217,9.8124,1.1448,2.7160,1.7500,-3.9200,1.8200,1.0000,0.0000,0.0000,1,0,0
1671462731330,9.7118,1.2478,2.8046,1.4700,-2.5900,1.6800,1.0000,0.0000,0.0000,0,0,0
1671462731441,9.7142,1.2215,2.8453,0.0700,-1.1900,0.6300,1.0000,0.0000,0.0000,0,0,0
1671462731555,9.5058,1.1137,2.7902,0.8400,1.4000,1.4000,1.0000,0.0000,0.0000,0,0,0
1671462731669,8.9382,1.1113,2.6704,-1.9600,5.2500,-0.7000,1.0000,0.0000,0.0000,0,0,0
1671462731776,7.7239,0.7928,2.2010,-4.0600,-5.4600,0.2100,1.0000,0.0000,0.0000,0,0,0
1671462731889,6.6773,0.7161,2.0142,-4.6900,0.7700,-9.1000,1.0000,0.0000,0.0000,0,0,0
1671462732001,8.4832,1.1568,2.2968,-2.8700,0.7700,6.5800,0.9999,0.0000,0.0000,0,0,0
1671462732113,9.4340,1.0514,3.0944,-5.8800,4.1300,-3.9900,0.9999,0.0000,0.0000,0,0,0
1671462732225,10.2148,1.2885,3.3746,-4.9700,11.1300,-7.6300,0.9999,0.0000,0.0000,0,0,0
1671462732338,10.0232,1.3029,3.5255,-3.9200,0.7000,-6.6500,0.9999,0.0000,0.0000,0,0,0
1671462732451,10.0782,1.4346,3.5063,-2.6600,-3.1500,-1.8200,0.9999,0.0000,0.0000,0,0,0
1671462732561,10.4471,1.4610,3.7219,-1.8900,0.7000,-1.8900,0.9999,0.0000,0.0000,0,0,0
1671462732670,10.2890,1.4418,3.5063,-1.1900,1.1200,-0.4900,1.0000,0.0000,0.0000,0,0,0
1671462732783,10.5333,1.6717,3.5207,-2.2400,-2.7300,1.8900,1.0000,0.0000,0.0000,0,0,0
1671462732895,10.3321,1.5568,3.9015,-0.0700,-3.7100,2.4500,1.0000,0.0000,0.0000,0,0,0
1671462733008,10.7273,1.5160,3.7506,-0.4900,-5.9500,3.4300,1.0000,0.0000,0.0000,0,0,0
1671462733120,9.5106,1.4274,3.1614,-1.4700,-3.0800,-0.9100,1.0000,0.0000,0.0000,0,0,0
1671462733231,9.5418,1.3723,3.0656,-2.4500,-0.2800,-3.5700,1.0000,0.0000,0.0000,0,0,0
1671462733343,9.4747,1.3795,3.0345,0.2100,5.1800,-1.6800,1.0000,0.0000,0.0000,0,0,0
1671462733455,10.0184,1.4226,3.2620,-1.3300,-3.5700,2.3800,1.0000,0.0000,0.0000,0,0,0
1671462733567,10.6123,1.5663,3.6644,0.2100,4.5500,2.8700,0.9999,0.0000,0.0000,0,0,0
1671462733678,12.7367,1.6047,3.8727,-2.3800,-1.4700,1.6800,1.0000,0.0000,0.0000,0,0,0
1671462733790,11.6278,1.7412,4.0141,-2.5200,2.5200,-3.4300,0.9999,0.0000,0.0000,0,0,0
1671462733902,9.9130,1.5496,3.3985,0.0000,16.1000,-7.7000,1.0000,0.0000,0.0000,0,0,0
1671462734015,9.3190,0.9820,3.3961,-1.4000,4.7600,-3.9900,1.0000,0.0000,0.0000,0,1,0
1671462734126,9.7741,1.5041,3.4297,1.4000,-0.7000,1.7500,1.0000,0.0000,0.0000,0,0,0
1671462734239,10.1788,1.6621,3.9039,7.0000,-4.9700,4.9700,1.0000,0.0000,0.0000,0,0,0
1671462734351,9.3023,1.4538,3.4800,7.2800,-5.6000,6.5800,1.0000,0.0000,0.0000,0,0,0
1671462734462,8.5311,1.4394,2.8501,8.1900,-12.8800,7.0000,1.0000,0.0000,0.0000,0,0,0
1671462734576,6.5671,0.7664,2.2896,8.3300,-4.1300,5.0400,1.0000,0.0000,0.0000,0,0,0
1671462734688,7.4533,0.9508,2.2657,4.0600,9.1700,2.3100,1.0000,0.0000,0.0000,0,0,0
1671462734799,10.0974,1.5855,3.2668,1.1200,-6.1600,5.1100,1.0000,0.0000,0.0000,0,0,0
1671462734912,9.3813,1.2071,3.0776,-0.4200,1.6800,-0.2800,1.0000,0.0000,0.0000,0,0,0
1671462735023,9.6352,1.3963,2.9746,1.4000,-1.9600,2.1000,1.0000,0.0000,0.0000,0,0,0
1671462735135,9.7381,1.2167,2.7902,0.4200,-2.1000,1.3300,1.0000,0.0000,0.0000,1,0,0
1671462735246,9.6902,1.2574,2.9602,0.9100,-1.8900,0.9100,1.0000,0.0000,0.0000,0,0,0
1671462735358,9.6328,1.2742,2.9028,0.4900,-1.4000,-0.1400,1.0000,0.0000,0.0000,0,0,0
1671462735469,9.6208,1.2071,3.0441,-0.2800,-0.0700,1.1900,1.0000,0.0000,0.0000,0,0,0
1671462735581,8.3730,0.9365,2.5507,1.4700,-0.8400,5.7400,1.0000,0.0000,0.0000,0,0,0
1671462735693,8.4137,0.8143,2.8932,-2.5900,-2.4500,5.9500,1.0000,0.0000,0.0000,0,0,0
1671462735806,7.7000,0.8478,2.2010,-5.2500,11.8300,-13.1600,1.0000,0.0000,0.0000,0,0,0
1671462735918,8.7155,0.9724,2.7447,-4.2700,4.7600,-1.7500,1.0000,0.0000,0.0000,0,0,0
1671462736031,9.2544,1.2406,3.2644,-2.0300,9.1700,-4.6200,1.0000,0.0000,0.0000,0,0,0
1671462736142,10.0591,1.5376,3.5925,-1.9600,0.9100,-3.9200,0.9999,0.0000,0.0000,0,0,0
1671462736254,10.0591,1.4250,3.6452,-0.4900,-0.2100,-2.1000,0.9999,0.0000,0.0000,0,0,0
1671462736366,9.7142,1.2957,3.5566,-1.9600,-2.5200,-1.4700,1.0000,0.0000,0.0000,0,0,0
1671462736478,9.8986,1.4250,3.5877,-0.4200,-6.2300,-0.3500,1.0000,0.0000,0.0000,0,0,0
1671462736589,10.2603,1.5304,3.6285,-0.1400,-2.0300,-1.1200,1.0000,0.0000,0.0000,0,0,0
1671462736702,10.3824,1.6813,3.7003,-0.7000,-1.4700,0.3500,1.0000,0.0000,0.0000,0,0,0
1671462736816,10.2531,1.5639,3.5542,0.0700,0.0000,-0.4900,1.0000,0.0000,0.0000,0,0,0
1671462736928,10.1908,1.5256,3.6955,-1.6800,2.7300,-3.5700,1.0000,0.0000,0.0000,0,0,0
1671462737042,10.2794,1.4562,3.4560,-2.8700,-2.5200,2.0300,1.0000,0.0000,0.0000,0,0,0
1671462737153,10.1597,1.4131,3.5303,-0.9800,-4.0600,0.9800,0.9999,0.0000,0.0000,0,0,0
1671462737265,9.7262,1.4418,3.2381,-0.1400,2.5900,-1.7500,0.9999,0.0000,0.0000,0,0,0
1671462737382,9.4819,1.3412,3.2357,-0.4900,0.4200,-0.6300,0.9999,0.0000,0.0000,0,0,0
1671462737502,9.5370,1.3652,3.2692,0.6300,0.6300,0.0700,1.0000,0.0000,0.0000,0,0,0
1671462737614,9.7286,1.4562,3.2716,-0.0700,-1.3300,0.1400,1.0000,0.0000,0.0000,0,0,0
1671462737727,9.5944,1.4729,3.2860,-0.2800,0.8400,-0.2800,1.0000,0.0000,0.0000,0,0,0
1671462737839,9.5873,1.3843,3.1303,-0.9100,0.6300,-0.9100,0.9999,0.0000,0.0000,0,1,0
1671462737952,9.8914,1.5687,3.2165,-0.9100,-1.4700,-0.4900,1.0000,0.0000,0.0000,0,0,0
1671462738063,9.6280,1.4969,3.3051,0.0000,1.1200,1.1200,0.9999,0.0000,0.0000,0,0,0
1671462738175,9.6136,1.4346,3.3411,0.0700,-1.2600,1.1200,1.0000,0.0000,0.0000,0,0,0
1671462738287,10.0447,1.4250,3.4081,-0.7700,-3.2900,1.4700,1.0000,0.0000,0.0000,0,0,0
1671462738398,11.6087,1.6981,3.9542,-1.6100,-5.9500,3.0100,1.0000,0.0000,0.0000,0,0,0
1671462738510,12.0972,1.8178,4.2607,-1.6100,4.9700,-3.2900,1.0000,0.0000,0.0000,0,0,0
1671462738623,9.7837,1.5017,3.6285,-6.0200,6.6500,-3.7800,1.0000,0.0000,0.0000,0,0,0
1671462738735,9.4292,1.2861,3.5135,-4.3400,13.1600,-7.0000,1.0000,0.0000,0.0000,0,0,0
1671462738846,9.7477,1.6238,3.6931,0.4200,1.5400,2.9400,1.0000,0.0000,0.0000,0,0,0
1671462738958,10.2938,1.4849,3.8632,2.3800,-8.6800,6.0200,1.0000,0.0000,0.0000,0,0,0
1671462739070,10.4255,1.6550,3.8416,2.6600,-8.8900,4.4100,1.0000,0.0000,0.0000,0,0,0
1671462739182,9.5322,1.2215,3.2333,7.9800,-1.8900,5.3900,1.0000,0.0000,0.0000,0,0,0
1671462739295,5.7624,0.7688,1.9016,9.8700,-2.5200,1.1900,1.0000,0.0000,0.0000,0,0,0
1671462739407,5.4702,0.7496,1.9543,3.5700,2.8000,-4.5500,1.0000,0.0000,0.0000,0,0,0
1671462739518,10.2028,1.8585,3.3626,3.7100,15.1200,5.3900,1.0000,0.0000,0.0000,0,0,0
1671462739631,9.6687,1.6142,3.9135,-3.5000,-2.1000,-5.0400,1.0000,0.0000,0.0000,0,0,0
1671462739743,9.3573,1.5975,2.8980,2.4500,0.6300,2.4500,1.0000,0.0000,0.0000,1,0,0
1671462739856,9.6376,1.3723,3.4632,0.7000,-10.9200,3.4300,1.0000,0.0000,0.0000,0,0,0
1671462739968,9.5370,1.5520,3.3482,0.0000,-0.7700,1.3300,1.0000,0.0000,0.0000,0,0,0
1671462740081,9.6711,1.4634,3.2596,0.1400,-0.4900,1.1200,1.0000,0.0000,0.0000,0,0,0
1671462740193,9.5633,1.3460,3.3482,0.3500,-0.6300,1.6800,1.0000,0.0000,0.0000,0,0,0
1671462740304,9.5777,1.4442,3.2405,0.4200,-2.6600,1.1200,1.0000,0.0000,0.0000,0,0,0
1671462740417,9.6519,1.3197,3.2381,0.6300,-3.9200,0.8400,1.0000,0.0000,0.0000,0,0,0
1671462740531,9.5681,1.3292,3.1135,0.2800,0.5600,-0.0700,1.0000,0.0000,0.0000,0,0,0
1671462740643,9.5082,1.3244,3.1135,0.2800,-0.8400,-0.8400,0.9999,0.0000,0.0000,0,0,0
1671462740756,9.6112,1.3556,3.1518,0.2800,-5.4600,0.6300,1.0000,0.0000,0.0000,0,0,0
1671462740869,9.7381,1.4155,3.1758,-1.0500,2.7300,0.0700,0.9999,0.0000,0.0000,0,0,0
1671462740981,9.6064,1.3412,3.2021,-0.8400,5.8100,-0.7000,0.9999,0.0000,0.0000,0,0,0
1671462741093,9.6184,1.3891,3.3099,-1.6800,3.3600,-1.8900,0.9999,0.0000,0.0000,0,0,0
1671462741205,9.5082,1.4442,3.4345,-4.2000,10.6400,-4.4100,1.0000,0.0000,0.0000,0,0,0
1671462741317,9.3981,1.4107,3.3674,-4.2000,4.4100,-0.7700,0.9999,0.0000,0.0000,0,0,0
1671462741430,9.3957,1.3604,3.5734,-7.0000,-0.2800,0.9100,0.9999,0.0000,0.0000,0,0,0
1671462741542,9.4148,1.3244,3.5542,1.9600,-6.0900,3.9200,1.0000,0.0000,0.0000,0,0,0
1671462741655,9.4196,1.1257,3.7051,1.5400,0.7000,3.9900,0.9999,0.0000,0.0000,0,0,0
1671462741768,9.4843,1.2047,3.4345,1.8200,2.8000,1.1900,0.9999,0.0000,0.0000,0,0,0
1671462741880,9.3286,1.1760,3.4824,-1.1900,-0.6300,-1.4700,0.9999,0.0000,0.0000,0,0,0
1671462741991,9.3023,1.2526,3.4057,0.8400,-7.2800,4.8300,0.9999,0.0000,0.0000,0,0,0
1671462742102,8.0113,0.9412,3.0752,-3.5700,1.7500,-2.8000,0.9999,0.0000,0.0000,0,0,0
1671462742215,7.0054,0.8550,2.3663,-1.8200,2.3800,-9.0300,0.9999,0.0000,0.0000,0,0,0
1671462742325,7.7982,1.0394,2.8429,-0.0700,-0.2800,0.3500,0.9999,0.0000,0.0000,0,0,0
1671462742437,9.9202,1.4993,3.6955,-2.0300,-4.3400,1.1200,0.9999,0.0000,0.0000,0,0,0
1671462742549,10.0926,1.4514,3.6931,-3.0100,5.3900,-1.6100,0.9999,0.0000,0.0000,0,0,0
1671462742660,9.6591,1.3867,3.4369,-3.4300,-4.3400,-0.2800,0.9999,0.0000,0.0000,0,0,0
1671462742773,9.8340,1.4849,3.4488,-2.0300,-5.1100,-0.0700,0.9999,0.0000,0.0000,0,0,0
1671462742885,10.3680,1.4274,3.6261,0.4200,-5.8100,-0.0700,0.9999,0.0000,0.0000,0,0,0
1671462742997,10.3010,1.5184,3.5327,0.4200,-0.1400,-0.1400,0.9999,0.0000,0.0000,0,0,0
1671462743111,10.4016,1.4945,3.6308,-0.2800,-0.7700,0.7000,0.9999,0.0000,0.0000,0,0,0
1671462743223,10.1549,1.4658,3.8153,-0.2800,8.4700,-2.6600,0.9999,0.0000,0.0000,0,0,0
1671462743339,10.2124,1.6071,3.9781,0.8400,3.6400,0.9800,0.9999,0.0000,0.0000,0,0,0
1671462743450,11.0195,1.6238,3.9925,-1.8900,-9.9400,1.8200,0.9999,0.0000,0.0000,0,0,0
1671462743562,9.4292,1.2670,3.5039,-0.6300,-2.4500,-0.4900,0.9999,0.0000,0.0000,0,0,0
1671462743674,9.2855,1.2023,3.3506,-0.4900,11.4100,-2.5200,0.9999,0.0000,0.0000,0,0,0
1671462743786,9.0029,1.2885,3.2333,-1.4000,-2.3800,-0.3500,0.9999,0.0000,0.0000,0,1,0
1671462743897,9.1514,1.5256,3.4464,-0.5600,-6.6500,1.5400,0.9999,0.0000,0.0000,0,0,0
1671462744011,9.7837,1.4514,3.5303,-2.0300,7.6300,-3.7800,0.9999,0.0000,0.0000,0,0,0
1671462744123,10.3585,1.4586,3.7985,-1.8900,-2.4500,0.4900,0.9999,0.0000,0.0000,0,0,0
1671462744234,12.0278,1.6142,4.4380,-1.8900,-5.2500,4.4800,1.0000,0.0000,0.0000,0,0,0
1671462744348,12.1260,1.8466,4.6032,1.7500,-7.5600,2.1700,1.0000,0.0000,0.0000,0,0,0
1671462744459,10.6842,1.4658,3.7817,-3.3600,6.3700,-3.1500,1.0000,0.0000,0.0000,0,0,0
1671462744571,9.5202,1.1520,3.1854,0.0700,0.7000,3.2900,1.0000,0.0000,0.0000,0,0,0
1671462744683,10.0423,1.3197,3.6452,-3.5700,-8.6100,7.8400,1.0000,0.0000,0.0000,0,0,0
1671462744797,10.1309,1.2837,3.2572,11.5500,10.8500,0.5600,1.0000,0.0000,0.0000,0,0,0
1671462744909,9.0699,1.5616,3.2812,5.1800,-11.1300,6.0900,1.0000,0.0000,0.0000,0,0,0
1671462745021,8.2508,0.7592,2.4142,0.0000,-1.3300,2.2400,1.0000,0.0000,0.0000,0,0,0
1671462745134,5.3289,0.8646,1.5663,4.9700,0.7000,-2.8700,1.0000,0.0000,0.0000,0,0,0
1671462745245,7.5635,0.7616,2.5507,3.8500,12.9500,3.8500,1.0000,0.0000,0.0000,0,0,0
1671462745357,10.1764,1.4921,3.5327,0.0000,-7.7000,-3.2900,1.0000,0.0000,0.0000,0,0,0
1671462745471,9.5082,1.2406,3.0537,-0.9800,8.3300,-1.7500,1.0000,0.0000,0.0000,0,0,0
1671462745583,9.4915,1.4849,3.0201,0.9800,-8.1200,4.9700,1.0000,0.0000,0.0000,1,0,0
1671462745691,9.5298,1.3867,3.0608,-5.1800,0.6300,1.6800,1.0000,0.0000,0.0000,0,0,0
1671462745802,9.5561,0.9628,3.2548,-4.0600,-9.7300,3.2900,1.0000,0.0000,0.0000,0,0,0
1671462745914,9.5130,0.8407,3.0776,-3.3600,1.4700,-0.4200,1.0000,0.0000,0.0000,0,0,0
1671462746026,10.5237,1.6214,3.0848,3.6400,-11.6200,0.5600,1.0000,0.0000,0.0000,0,0,0
1671462746140,9.2831,1.1376,2.9435,-1.2600,25.4800,-2.7300,1.0000,0.0000,0.0000,0,0,0
1671462746252,7.1012,0.7257,2.5459,-8.4000,1.7500,-10.3600,1.0000,0.0000,0.0000,0,0,0
1671462746363,12.5260,2.8405,4.5649,9.7300,18.7600,14.3500,1.0000,0.0000,0.0000,0,0,0
1671462746474,6.5432,0.5053,2.9243,-0.0700,-7.7700,-0.3500,1.0000,0.0000,0.0000,0,0,0
1671462746587,9.2639,1.3125,3.8727,-3.0100,7.0000,-0.0700,1.0000,0.0000,0.0000,0,0,0
1671462746700,8.8424,1.1281,4.9074,-12.8800,44.8000,0.0000,1.0000,0.0000,0.0000,0,0,0
1671462746812,9.0412,0.5461,5.9468,-4.6900,76.0200,9.9400,1.0000,0.0000,0.0000,0,0,0
1671462746923,8.1359,0.8526,4.3853,-2.2400,30.1000,-3.7100,1.0000,0.0000,0.0000,0,0,0
1671462747036,6.5408,0.2491,2.9052,-12.1100,-99.6800,-5.8100,1.0000,0.0000,0.0000,0,0,0
1671462747148,9.3573,1.8274,6.3995,21.4200,-88.2700,-35.4200,0.9999,0.0000,0.0000,0,0,0
1671462747265,10.7991,0.8550,3.7889,-39.4800,28.0700,11.9000,1.0000,0.0000,0.0000,0,0,0
1671462747378,7.4533,0.3449,3.5566,82.3200,60.5500,49.0000,1.0000,0.0000,0.0000,0,0,0
1671462747491,9.4388,-10.6650,10.5046,-76.6500,143.9899,99.5400,1.0001,0.0000,0.0000,0,0,0
1671462747603,5.9756,-5.2523,-0.5173,-189.3499,288.4699,-19.2500,1.0002,0.0000,0.0000,0,0,0
1671462747715,0.8526,-0.8886,10.5716,42.2800,316.3999,-122.5700,1.0002,0.0000,0.0000,0,0,0
1671462747828,-10.7177,-0.8742,14.0444,23.9400,151.0600,-212.7999,1.0002,0.0000,0.0000,0,0,0
1671462747942,-12.3224,1.2191,8.8735,-73.9900,-41.1600,21.4900,1.0003,0.0000,0.0000,0,0,0
1671462748053,-11.9511,0.7353,5.9253,-182.9799,-103.7400,224.6299,1.0002,0.0000,0.0000,0,0,0
1671462748166,-8.6340,-12.1236,13.6420,-209.4399,-234.3599,250.3899,1.0002,0.0000,0.0000,0,0,0
1671462748278,0.0192,-16.6574,5.7480,-34.4400,-350.0699,14.0700,1.0001,0.0000,0.0000,0,0,0
1671462748390,3.0441,-8.8927,0.7281,-23.3800,-221.8999,-198.6599,1.0000,0.0000,0.0000,0,0,0
1671462748501,4.9290,0.9508,3.3937,78.4700,27.2300,-180.4599,1.0000,0.0000,0.0000,0,0,0
1671462748612,6.0642,13.2612,6.3612,68.9500,-28.5600,-30.6600,1.0000,0.0000,0.0000,0,0,0
1671462748727,8.6317,1.4107,3.6380,-36.6100,-13.4400,-11.5500,1.0000,0.0000,0.0000,0,0,0
1671462748839,6.2797,3.1063,3.9877,-0.2800,-33.2500,-25.7600,1.0001,0.0000,0.0000,0,0,0
1671462748953,7.8940,5.1493,5.9253,112.7000,7.2100,-0.6300,1.0001,0.0000,0.0000,0,0,0
1671462749067,8.3658,3.6764,4.2416,25.3400,-20.7200,-37.0300,1.0001,0.0000,0.0000,0,0,0
1671462749182,8.7275,2.4381,6.3612,-67.6200,-18.9700,10.3600,1.0001,0.0000,0.0000,0,0,0
1671462749293,9.1418,-0.1581,5.0894,22.0500,4.1300,-2.8000,0.9999,0.0000,0.0000,0,0,0
1671462749405,7.4389,1.8897,4.5338,7.3500,6.1600,11.7600,1.0000,0.0000,0.0000,0,0,0
1671462749516,8.9071,4.0955,2.9052,97.7200,-8.3300,17.6400,1.0000,0.0000,0.0000,0,0,0
1671462749628,9.9872,3.5350,3.1758,39.0600,-10.3600,17.5700,1.0001,0.0000,0.0000,0,0,0
1671462749739,7.9323,2.1723,7.0605,-80.9900,-26.7400,11.7600,1.0002,0.0000,0.0000,0,0,0
1671462749851,8.9214,0.5628,3.2405,29.2600,8.6100,-1.6800,1.0001,0.0000,0.0000,0,0,0
1671462749965,9.0651,1.6717,2.4765,-22.9600,7.2100,-2.8000,1.0001,0.0000,0.0000,0,0,0
1671462750078,9.8962,2.3950,1.1712,-39.5500,-3.7100,-9.6600,1.0001,0.0000,0.0000,0,0,0
1671462750190,8.5502,1.9974,5.5373,-27.5800,-45.6400,-5.3200,0.9999,0.0000,0.0000,0,0,0
1671462750302,9.8244,1.3628,3.2333,-40.4600,20.4400,-4.4800,0.9999,0.0000,0.0000,0,0,0
1671462750415,9.6447,1.3292,2.2178,-4.2000,35.8400,23.3100,0.9998,0.0000,0.0000,0,0,0
1671462750527,9.9393,-0.8191,4.2895,75.8100,22.4000,23.8700,0.9999,0.0000,0.0000,0,0,0
1671462750639,9.4244,3.1087,2.9794,49.0700,3.9200,11.3400,1.0000,0.0000,0.0000,0,0,0
1671462750754,9.1562,1.8873,6.2606,-74.6900,-25.9700,-10.7800,1.0000,0.0000,0.0000,0,0,0
1671462750866,7.7215,0.4862,3.6788,-4.1300,-2.4500,-6.4400,1.0000,0.0000,0.0000,0,0,0
1671462750978,9.1298,1.3556,4.3637,4.9700,-2.9400,-0.7000,0.9999,0.0000,0.0000,0,0,0
1671462751091,9.4651,1.6310,3.9829,-5.6700,-8.1900,-3.9200,0.9998,0.0000,0.0000,0,0,0
1671462751202,9.5849,1.4873,3.8344,3.5700,-22.5400,2.6600,0.9998,0.0000,0.0000,0,0,0
1671462751314,9.4196,1.6214,3.4416,7.7700,-6.5100,4.3400,0.9998,0.0000,0.0000,0,0,0
1671462751426,9.4891,1.6166,3.1974,2.9400,-9.8700,1.8200,0.9998,0.0000,0.0000,0,0,0
1671462751539,9.4795,1.6214,3.2141,1.6100,-3.9900,0.1400,0.9998,0.0000,0.0000,0,0,0
1671462751651,9.6280,1.6238,3.0680,1.5400,-1.6100,-0.2800,0.9998,0.0000,0.0000,0,0,0
1671462751763,9.6040,1.6669,3.0441,7.1400,1.6800,1.7500,0.9998,0.0000,0.0000,0,0,0
1671462751875,9.5561,1.4777,3.1471,-1.6800,4.2700,-0.6300,0.9998,0.0000,0.0000,0,0,0
1671462751987,9.6400,1.5879,3.1902,-0.1400,2.6600,0.2800,0.9998,0.0000,0.0000,0,0,0
1671462752099,9.6208,1.6957,3.1327,1.6100,0.7700,-0.0700,0.9998,0.0000,0.0000,0,0,0
1671462752212,9.5322,1.6214,3.2285,1.1900,0.2800,-1.2600,0.9998,0.0000,0.0000,0,0,0
1671462752324,9.5849,1.6358,3.2429,0.4200,-0.6300,-0.1400,0.9998,0.0000,0.0000,0,0,0
1671462752436,9.5513,1.6095,3.2644,-0.3500,0.0000,0.5600,0.9998,0.0000,0.0000,0,0,0
1671462752550,9.5465,1.5927,3.2524,-1.1900,0.0700,-0.7000,0.9998,0.0000,0.0000,0,0,0
1671462752662,9.5082,1.5280,3.2716,-0.4200,0.0700,0.0000,0.9998,0.0000,0.0000,0,0,0
1671462752774,9.4579,1.5184,3.2213,1.8200,0.7700,-1.0500,0.9998,0.0000,0.0000,0,0,0
1671462752886,9.5274,1.6142,3.2381,-0.9800,0.4900,0.9800,0.9998,0.0000,0.0000,0,0,0
1671462752999,9.5442,1.5663,3.3123,-0.4200,-1.1900,0.5600,0.9998,0.0000,0.0000,0,0,0
1671462753111,9.5394,1.5424,3.2309,-0.4900,-1.8200,1.2600,0.9998,0.0000,0.0000,0,0,0
1671462753223,9.5777,1.5711,3.2357,0.1400,-2.4500,0.7000,0.9999,0.0000,0.0000,0,0,0
1671462753335,9.5849,1.5376,3.1686,0.0000,-0.4900,0.4900,0.9998,0.0000,0.0000,0,0,0
1671462753448,9.6352,1.5041,3.2261,-0.0700,-1.4700,1.0500,0.9998,0.0000,0.0000,0,0,0
1671462753561,9.5489,1.5759,3.1686,-0.2800,0.3500,-0.0700,0.9999,0.0000,0.0000,0,0,0
1671462753673,9.7046,1.5544,3.1279,-0.3500,0.4200,-0.9100,0.9999,0.0000,0.0000,0,0,0
1671462753785,9.5657,1.5160,3.2045,-0.4900,0.4200,0.0700,0.9999,0.0000,0.0000,0,0,0
1671462753896,9.5489,1.5544,3.2261,-0.4900,1.1200,-0.3500,0.9999,0.0000,0.0000,0,0,0
1671462754010,9.5968,1.5639,3.1950,0.7000,0.9100,-1.1200,0.9999,0.0000,0.0000,0,0,0
1671462754124,9.5753,1.5472,3.2524,0.4200,4.8300,-1.2600,0.9999,0.0000,0.0000,0,0,0
1671462754236,9.4939,1.5855,3.4081,1.1200,2.5200,-1.5400,0.9999,0.0000,0.0000,0,0,0
1671462754347,9.4915,1.6310,3.3123,0.4200,0.9800,-0.7000,0.9999,0.0000,0.0000,0,0,0
1671462754460,9.5897,1.6885,3.3722,-2.0300,-1.5400,0.0700,0.9999,0.0000,0.0000,0,0,0
1671462754572,9.4771,1.6933,3.4033,-0.5600,7.0000,-2.1000,0.9999,0.0000,0.0000,0,0,0
1671462754685,9.4412,1.6454,3.3842,-1.5400,-0.0700,1.1900,0.9999,0.0000,0.0000,0,0,0
1671462754801,9.5130,1.5879,3.3842,-0.4200,-1.7500,0.7700,0.9999,0.0000,0.0000,0,0,0
1671462754913,9.4795,1.6621,3.3554,0.3500,-4.4800,0.8400,0.9999,0.0000,0.0000,0,0,0
1671462755024,9.4891,1.6526,3.3770,0.5600,-1.8900,-0.0700,0.9999,0.0000,0.0000,0,0,0
1671462755136,9.5825,1.7100,3.3075,0.1400,-0.4900,0.9100,0.9999,0.0000,0.0000,0,0,0
1671462755249,9.6112,1.6981,3.3219,0.2800,-3.9900,2.2400,0.9999,0.0000,0.0000,0,0,0
1671462755361,9.5465,1.5663,3.2572,-0.1400,-1.6800,0.6300,0.9999,0.0000,0.0000,0,0,0
1671462755476,9.4723,1.5831,3.1878,-0.4900,-1.4700,-0.0700,0.9999,0.0000,0.0000,0,0,0
1671462755587,9.5513,1.6286,3.2453,-0.8400,-0.0700,0.4200,0.9999,0.0000,0.0000,0,0,0
1671462755703,9.6136,1.6118,3.1734,-0.3500,0.3500,0.7000,0.9999,0.0000,0.0000,0,0,0
1671462755817,9.5465,1.5759,3.2021,-0.1400,1.0500,-0.2800,0.9999,0.0000,0.0000,0,0,0
1671462755928,9.6232,1.6095,3.2309,-0.2800,-0.0700,0.1400,0.9999,0.0000,0.0000,0,0,0
1671462756039,9.5130,1.5520,3.1159,0.5600,-6.0200,2.3800,0.9999,0.0000,0.0000,0,0,0
1671462756152,9.6807,1.6023,3.1447,0.6300,-5.3200,2.2400,0.9999,0.0000,0.0000,0,0,0
1671462756265,9.7860,1.5759,3.1135,1.0500,2.8700,-0.2800,0.9999,0.0000,0.0000,0,0,0
1671462756378,9.6423,1.6047,3.1327,-0.0700,0.0700,-0.1400,0.9999,0.0000,0.0000,0,0,0
1671462756490,9.6352,1.5184,3.0153,-0.4900,1.3300,1.4700,0.9999,0.0000,0.0000,1,0,0
1671462756601,8.8640,1.3484,2.7495,2.7300,-1.2600,2.1700,0.9999,0.0000,0.0000,0,0,0
1671462756713,7.7359,1.3819,2.4190,-4.6200,4.2000,-3.3600,0.9999,0.0000,0.0000,0,0,0
1671462756825,7.3096,1.2454,2.4597,-5.4600,-4.7600,-10.7800,0.9999,0.0000,0.0000,0,0,0
1671462756936,8.3778,1.4370,2.7423,-1.3300,10.2200,-2.1700,0.9999,0.0000,0.0000,0,0,0
1671462757048,9.0149,1.6981,3.0345,-4.2700,-1.6100,-0.7700,0.9999,0.0000,0.0000,0,0,0
1671462757161,9.9489,1.7915,3.6045,-4.4100,-4.0600,-1.8200,0.9999,0.0000,0.0000,0,0,0
1671462757275,9.4963,1.6382,3.3482,-1.4000,4.3400,-1.9600,0.9999,0.0000,0.0000,0,0,0
1671462757390,9.7741,1.7843,3.3578,-2.5900,-1.0500,-1.9600,0.9999,0.0000,0.0000,0,0,0
1671462757502,10.0735,2.0477,3.6045,-0.2800,2.5200,0.2100,0.9999,0.0000,0.0000,0,0,0
1671462757613,10.5213,2.0094,3.6979,3.4300,3.5700,-0.3500,1.0000,0.0000,0.0000,0,0,0
1671462757725,10.2674,2.0070,3.5877,-0.1400,-0.2100,1.5400,1.0000,0.0000,0.0000,0,0,0
1671462757838,10.8902,2.1507,3.9542,-0.4900,2.0300,1.4000,1.0000,0.0000,0.0000,0,0,0
1671462757950,11.6542,2.3160,4.0548,-1.5400,-2.2400,0.0700,1.0000,0.0000,0.0000,0,0,0
1671462758063,9.5298,1.7579,3.2237,-1.8900,-3.2900,-0.0700,1.0000,0.0000,0.0000,0,0,0
1671462758172,9.3957,1.8753,3.3434,-3.0100,7.8400,-0.9800,1.0000,0.0000,0.0000,0,1,0
1671462758279,9.2232,1.9687,3.5350,3.2900,2.0300,-0.1400,0.9999,0.0000,0.0000,0,0,0
1671462758389,9.8483,1.8873,3.8440,1.0500,-5.9500,2.4500,0.9999,0.0000,0.0000,0,0,0
1671462758498,11.8649,2.4836,4.3877,1.4700,0.7700,1.6100,1.0000,0.0000,0.0000,0,0,0
1671462758607,12.0996,2.1388,4.2512,-1.1900,-3.4300,3.3600,1.0000,0.0000,0.0000,0,0,0
1671462758718,10.6794,1.7196,3.7889,-8.1900,-4.4100,0.1400,0.9999,0.0000,0.0000,0,0,0
1671462758831,9.7070,1.5472,3.7626,-2.1700,7.7700,3.7800,1.0000,0.0000,0.0000,0,0,0
1671462758945,9.4723,1.5855,3.5470,6.1600,13.6500,-1.3300,1.0000,0.0000,0.0000,0,0,0
1671462759059,9.5513,1.6334,3.8967,0.9100,1.1200,1.0500,1.0000,0.0000,0.0000,0,0,0
1671462759173,8.6939,1.7819,3.4273,8.1200,-1.4700,-1.8900,1.0000,0.0000,0.0000,0,0,0
1671462759285,8.0880,1.5831,3.0129,1.5400,2.8700,0.4900,1.0000,0.0000,0.0000,0,0,0
1671462759396,6.1432,1.0514,2.4525,2.0300,-12.1800,-2.4500,1.0000,0.0000,0.0000,0,0,0
1671462759508,6.3731,1.0825,2.5723,2.3800,-2.6600,-0.2100,1.0000,0.0000,0.0000,0,0,0
1671462759621,10.0232,1.9591,3.5853,2.1000,-3.5000,5.9500,1.0000,0.0000,0.0000,0,0,0
1671462759732,9.5921,1.8322,3.2692,-0.2800,2.9400,1.1900,1.0000,0.0000,0.0000,0,0,0
1671462759843,9.5058,1.7316,3.3434,0.5600,-3.0800,2.3800,1.0000,0.0000,0.0000,0,0,0
1671462759955,9.5394,1.6693,3.2453,1.4700,-6.7200,2.4500,1.0000,0.0000,0.0000,0,0,0
1671462760068,9.5561,1.7196,3.3339,1.4000,-2.8700,3.2900,1.0000,0.0000,0.0000,0,0,0
1671462760181,9.5202,1.5616,3.1518,0.7000,-2.6600,2.4500,1.0000,0.0000,0.0000,0,0,0
1671462760293,9.5465,1.5208,3.4392,-0.9100,-3.0800,1.6100,1.0000,0.0000,0.0000,1,0,0
1671462760405,9.5681,1.4921,3.0465,-0.7000,-0.2800,1.8200,1.0000,0.0000,0.0000,0,0,0
1671462760518,9.1897,1.3963,2.9722,1.4700,1.8900,3.4300,1.0000,0.0000,0.0000,0,0,0
1671462760630,7.3719,1.2742,2.3160,-1.8900,-3.6400,-3.0800,1.0000,0.0000,0.0000,0,0,0
1671462760741,6.8617,1.4035,2.4357,-4.0600,-2.8700,-4.8300,1.0000,0.0000,0.0000,0,0,0
1671462760853,7.8437,1.1352,2.4836,-1.7500,9.2400,1.9600,1.0000,0.0000,0.0000,0,0,0
1671462760966,8.9262,1.1975,2.9914,-2.8000,-2.5900,0.7000,1.0000,0.0000,0.0000,0,0,0
1671462761077,9.8483,1.5639,3.1327,-2.4500,-2.0300,0.8400,1.0000,0.0000,0.0000,0,0,0
1671462761190,10.0040,1.7795,3.3291,-2.8700,4.0600,-3.7100,1.0000,0.0000,0.0000,0,0,0
1671462761302,9.6112,1.5927,3.1830,-1.6100,1.1200,-3.5000,1.0000,0.0000,0.0000,0,0,0
1671462761415,10.0495,1.6502,3.4560,-2.0300,-6.5800,0.0700,1.0000,0.0000,0.0000,0,0,0
1671462761528,10.0615,1.7460,3.2932,1.6800,2.3100,-0.3500,1.0000,0.0000,0.0000,0,0,0
1671462761639,11.0746,1.9543,3.6261,0.4900,-6.7200,4.4100,1.0000,0.0000,0.0000,0,0,0
1671462761751,12.7463,2.0885,4.2727,-0.1400,-5.2500,3.1500,1.0000,0.0000,0.0000,0,0,0
1671462761863,10.9572,1.9280,3.1351,2.7300,1.2600,1.0500,0.9999,0.0000,0.0000,0,0,0
1671462761975,8.4616,1.2694,2.4908,-2.5900,3.9900,-7.2800,1.0000,0.0000,0.0000,0,0,0
1671462762088,9.1059,2.0214,2.6417,-3.5000,0.0700,-1.1900,1.0000,0.0000,0.0000,0,1,0
1671462762199,9.7118,1.8370,3.2668,0.0000,1.5400,4.6900,1.0000,0.0000,0.0000,0,0,0
1671462762313,10.3776,1.6597,3.4369,-1.1900,0.9100,0.7000,0.9999,0.0000,0.0000,0,0,0
1671462762428,12.9714,2.3447,3.5686,-0.4900,-5.5300,0.5600,1.0000,0.0000,0.0000,0,0,0
1671462762543,11.4338,2.1914,3.6907,-2.6600,6.7200,-3.8500,1.0000,0.0000,0.0000,0,0,0
1671462762654,10.2459,1.7939,3.0752,-3.7100,-1.6100,-0.9100,1.0000,0.0000,0.0000,0,0,0
1671462762766,9.5418,1.5496,3.3770,-0.7000,10.7100,-2.6600,1.0000,0.0000,0.0000,0,0,0
1671462762877,9.2735,1.7053,3.2836,4.9700,12.3200,-2.3800,1.0000,0.0000,0.0000,0,0,0
1671462762989,9.9465,1.6238,3.5135,13.0900,-7.2100,0.0000,1.0000,0.0000,0.0000,0,0,0
1671462763101,9.0891,1.6406,3.2285,2.7300,-0.9800,2.8700,1.0000,0.0000,0.0000,0,0,0
1671462763214,8.4113,1.6238,2.6273,6.2300,-8.0500,5.6000,1.0000,0.0000,0.0000,0,0,0
1671462763325,6.3109,1.0442,2.2633,4.5500,-7.2800,-2.4500,1.0000,0.0000,0.0000,0,0,0
1671462763437,7.7335,1.2718,2.3639,0.3500,7.8400,7.9800,1.0000,0.0000,0.0000,0,0,0
1671462763550,9.6543,1.7508,3.1590,0.2100,-18.0600,7.8400,1.0000,0.0000,0.0000,0,0,0
1671462763661,9.7741,1.5400,2.9123,2.8700,-1.4700,2.6600,1.0000,0.0000,0.0000,0,0,0
1671462763774,9.6711,1.6430,2.7447,0.3500,3.1500,3.0100,1.0000,0.0000,0.0000,0,0,0
1671462763887,9.7070,1.3723,2.8429,-0.7000,-1.1200,0.0700,1.0000,0.0000,0.0000,0,0,0
1671462763997,9.6902,1.4346,2.8453,-0.2100,-3.4300,1.0500,1.0000,0.0000,0.0000,0,0,0
1671462764110,9.7597,1.4849,2.7543,-0.2800,1.4700,0.4900,1.0000,0.0000,0.0000,0,0,0
1671462764222,9.7597,1.3652,2.7686,-0.3500,0.9100,0.7700,1.0000,0.0000,0.0000,0,0,0
1671462764333,9.6256,1.4250,2.8956,-0.5600,1.8900,-0.7000,1.0000,0.0000,0.0000,0,0,0
1671462764447,9.5801,1.3963,2.9195,-1.4700,0.9100,-1.7500,1.0000,0.0000,0.0000,0,0,0
1671462764558,9.5058,1.4370,2.9962,0.1400,0.5600,1.1900,1.0000,0.0000,0.0000,0,0,0
1671462764671,9.4172,1.3005,2.8022,-0.7700,0.2800,0.4900,1.0000,0.0000,0.0000,0,0,0
1671462764784,9.8100,1.4059,2.8477,-2.3800,-3.7800,-1.1900,0.9999,0.0000,0.0000,1,0,0
1671462764895,10.0950,1.4562,2.9363,-1.4000,6.0200,-2.8700,1.0000,0.0000,0.0000,0,0,0
1671462765008,9.3645,1.5352,2.7926,-1.9600,2.1700,-2.8700,1.0000,0.0000,0.0000,0,0,0
1671462765119,8.3874,1.1760,2.6202,-0.2100,-3.5700,-0.2100,0.9999,0.0000,0.0000,0,0,0
1671462765231,6.4689,1.0706,1.8969,-2.8000,-1.9600,-3.8500,1.0000,0.0000,0.0000,0,0,0
1671462765343,7.0964,1.0945,2.2058,-3.3600,9.6600,-6.7200,0.9999,0.0000,0.0000,0,0,0
1671462765455,9.9681,1.6358,3.3171,-2.5200,5.0400,0.1400,0.9999,0.0000,0.0000,0,0,0
1671462765569,9.6471,1.8226,3.2500,-4.2700,-0.9100,-6.6500,0.9999,0.0000,0.0000,0,0,0
1671462765681,10.0184,1.7675,3.5087,-5.5300,-0.8400,-7.1400,0.9999,0.0000,0.0000,0,0,0
1671462765792,10.0136,1.8585,3.2668,-0.6300,-3.1500,-0.9100,0.9999,0.0000,0.0000,0,0,0
1671462765903,10.5525,1.9591,3.5542,2.0300,-11.7600,2.9400,0.9999,0.0000,0.0000,0,0,0
1671462766014,10.8135,1.9903,3.3243,0.4200,0.3500,1.1900,0.9999,0.0000,0.0000,0,0,0
1671462766126,10.7512,1.9112,3.0608,1.4700,-1.5400,0.8400,1.0000,0.0000,0.0000,0,0,0
1671462766238,10.8830,1.9543,3.3171,2.0300,-1.8200,3.3600,1.0000,0.0000,0.0000,0,0,0
1671462766351,10.9165,1.9424,3.1758,0.9100,-5.0400,2.9400,1.0000,0.0000,0.0000,0,0,0
1671462766463,9.6376,1.6358,2.9219,0.0700,1.1900,-0.8400,0.9999,0.0000,0.0000,0,1,0
1671462766575,9.5442,1.4753,2.6657,-1.2600,1.4000,-2.8700,0.9999,0.0000,0.0000,0,0,0
1671462766687,9.8196,1.7100,2.9435,0.3500,1.8900,0.2800,1.0000,0.0000,0.0000,0,0,0
1671462766800,9.6304,1.6478,3.1303,0.6300,-1.6800,0.9100,1.0000,0.0000,0.0000,0,0,0
1671462766913,12.6960,2.2010,3.3890,-2.1700,-1.1900,3.3600,1.0000,0.0000,0.0000,0,0,0
1671462767027,11.8458,2.3112,3.8368,-3.2200,6.3000,-3.2200,1.0000,0.0000,0.0000,0,0,0
1671462767139,10.5405,1.4969,3.4369,-5.4600,-3.8500,-3.5700,1.0000,0.0000,0.0000,0,0,0
1671462767252,9.3861,1.6071,3.1758,-2.3800,17.0800,-1.8200,1.0000,0.0000,0.0000,0,0,0
1671462767363,9.4627,1.6669,3.1111,6.3000,3.9200,3.3600,0.9999,0.0000,0.0000,0,0,0
1671462767476,10.0902,1.8418,3.2932,10.9200,-0.7700,4.9000,0.9999,0.0000,0.0000,0,0,0
1671462767588,9.3526,1.6262,3.2620,4.7600,-1.9600,0.3500,1.0000,0.0000,0.0000,0,0,0
1671462767700,8.9095,1.5687,2.7662,0.9800,-7.9800,1.4700,1.0000,0.0000,0.0000,0,0,0
1671462767812,5.7552,0.8694,1.8849,0.5600,-8.3300,-4.7600,1.0000,0.0000,0.0000,0,0,0
1671462767923,6.3851,1.0203,2.1938,-0.3500,-0.4900,1.4000,1.0000,0.0000,0.0000,0,0,0
1671462768035,10.0998,1.8250,3.1399,-0.5600,2.6600,3.4300,1.0000,0.0000,0.0000,0,0,0
1671462768147,9.4867,1.5280,3.0249,-0.9100,7.2800,-0.9800,1.0000,0.0000,0.0000,0,0,0
1671462768259,9.4986,1.6765,3.0441,1.8200,0.4900,2.9400,1.0000,0.0000,0.0000,0,0,0
1671462768369,9.5897,1.5424,3.1854,0.7000,-4.7600,1.5400,1.0000,0.0000,0.0000,0,0,0
1671462768482,9.6376,1.6286,3.0081,-0.1400,-1.2600,1.1900,1.0000,0.0000,0.0000,0,0,0
1671462768594,9.5705,1.5496,3.0824,0.6300,3.2200,0.2100,1.0000,0.0000,0.0000,0,0,0
1671462768707,9.5873,1.5208,3.0632,-0.7000,0.4200,-0.2100,1.0000,0.0000,0.0000,0,0,0
1671462768819,9.6328,1.6095,3.1159,-0.4200,-1.8200,1.7500,1.0000,0.0000,0.0000,0,0,0
1671462768931,9.3406,1.5448,3.0177,-1.5400,0.9100,-0.4900,1.0000,0.0000,0.0000,0,0,0
1671462769043,9.5585,1.6023,3.1686,-2.3800,5.3900,-2.1700,1.0000,0.0000,0.0000,0,0,0
1671462769157,9.6926,1.6693,3.3291,-1.7500,2.3800,-2.2400,1.0000,0.0000,0.0000,0,0,0
1671462769270,9.3837,1.6334,2.9842,-0.4200,1.6800,1.6100,1.0000,0.0000,0.0000,1,0,0
1671462769383,8.9550,1.5017,3.0680,1.4000,3.5700,-0.4200,0.9999,0.0000,0.0000,0,0,0
1671462769494,8.0976,1.4394,2.9076,-1.1900,-0.9100,-3.2200,0.9999,0.0000,0.0000,0,0,0
1671462769606,7.0390,1.3221,2.5770,-1.4000,3.7800,-2.3800,0.9999,0.0000,0.0000,0,0,0
1671462769718,7.8221,1.3628,2.9147,-1.1900,7.4900,4.3400,0.9999,0.0000,0.0000,0,0,0
1671462769829,9.6447,1.8082,3.5638,-2.3100,-1.7500,-2.8000,0.9999,0.0000,0.0000,0,0,0
1671462769941,9.7765,1.8058,3.5853,-2.5200,-0.9100,-4.6900,0.9999,0.0000,0.0000,0,0,0
1671462770053,9.8914,1.8537,3.7027,-4.5500,-3.7100,-2.1700,0.9999,0.0000,0.0000,0,0,0
1671462770166,10.0303,1.7915,3.5614,-3.9900,-4.9000,0.0000,0.9999,0.0000,0.0000,0,0,0
1671462770279,10.2866,1.9256,3.6931,0.4200,0.6300,-1.8200,0.9999,0.0000,0.0000,0,0,0
1671462770390,10.2124,1.9735,3.5422,-0.0700,2.2400,-0.5600,0.9999,0.0000,0.0000,0,0,0
1671462770502,10.4686,2.0645,3.5327,1.1900,2.0300,-1.4700,1.0000,0.0000,0.0000,0,0,0
1671462770615,10.2579,2.0885,3.7386,0.2800,0.5600,-1.6100,0.9999,0.0000,0.0000,0,0,0
1671462770728,10.9357,2.1292,4.0859,-0.6300,-5.7400,3.1500,0.9999,0.0000,0.0000,0,0,0
1671462770839,9.4148,1.8106,3.5638,-0.7000,4.9700,-0.7700,0.9999,0.0000,0.0000,0,0,0
1671462770946,9.2448,1.6645,3.4416,-1.0500,-3.3600,-0.1400,0.9999,0.0000,0.0000,0,0,0
1671462771057,9.3334,1.7699,3.0992,1.4000,2.1700,0.4200,0.9999,0.0000,0.0000,0,1,0
1671462771169,9.5130,1.8993,3.3818,0.6300,-2.9400,1.8200,1.0000,0.0000,0.0000,0,0,0
1671462771281,9.5010,1.8298,3.4249,-1.3300,2.3100,0.2800,1.0000,0.0000,0.0000,0,0,0
1671462771393,9.5633,1.7579,3.3842,-0.4200,-1.6800,0.0000,1.0000,0.0000,0.0000,0,0,0
1671462771504,10.4543,1.9088,3.7961,-0.4200,1.6800,5.1100,1.0000,0.0000,0.0000,0,0,0
1671462771616,12.4661,2.2226,4.5721,-0.7700,-3.2200,-0.2800,1.0000,0.0000,0.0000,0,0,0
1671462771730,11.6853,2.1292,3.9470,-7.9800,7.0700,-3.9200,1.0000,0.0000,0.0000,0,0,0
1671462771843,10.0591,2.0142,3.7889,-3.8500,11.4800,-7.2800,1.0000,0.0000,0.0000,0,0,0
1671462771955,9.6926,1.7963,3.6165,-1.8900,-3.4300,5.0400,1.0000,0.0000,0.0000,0,0,0
1671462772069,9.7310,1.7220,3.7147,8.7500,-0.4200,3.5700,1.0000,0.0000,0.0000,0,0,0
1671462772181,9.4292,1.5831,3.3937,11.2700,-8.4700,3.2200,1.0000,0.0000,0.0000,0,0,0
1671462772292,9.6902,1.5568,3.3411,4.2000,-5.5300,3.5700,1.0000,0.0000,0.0000,0,0,0
1671462772406,6.9288,1.2574,2.2609,1.2600,-2.8700,-1.6800,1.0000,0.0000,0.0000,0,0,0
1671462772517,5.5732,0.8598,2.1627,5.0400,-11.9700,-1.0500,1.0000,0.0000,0.0000,0,0,0
1671462772631,9.6376,1.6118,2.9339,3.9200,12.5300,8.6800,1.0000,0.0000,0.0000,0,0,0
1671462772743,9.5370,1.6861,3.2979,-2.2400,-5.1800,-1.6800,1.0000,0.0000,0.0000,0,0,0
1671462772855,9.5513,1.5280,3.1734,-3.5000,6.5800,-4.4100,1.0000,0.0000,0.0000,0,0,0
1671462772969,9.4986,1.6597,3.3291,0.0700,1.3300,-3.5000,1.0000,0.0000,0.0000,0,0,0
1671462773080,9.4747,1.7795,3.1183,0.8400,-2.8700,1.8900,1.0000,0.0000,0.0000,0,0,0
1671462773192,9.6855,1.5592,3.2381,1.1900,-5.9500,4.7600,1.0000,0.0000,0.0000,0,0,0
1671462773304,9.6160,1.6047,3.0201,0.2100,-2.5200,2.5900,1.0000,0.0000,0.0000,0,0,0
1671462773416,9.5801,1.5400,3.0513,1.5400,-1.2600,4.2700,1.0000,0.0000,0.0000,0,0,0
1671462773527,9.1801,1.2718,2.9171,1.9600,-2.2400,7.5600,1.0000,0.0000,0.0000,0,0,0
1671462773640,8.8975,1.4921,2.5818,-1.4700,-4.0600,4.8300,1.0000,0.0000,0.0000,0,0,0
1671462773752,7.8509,1.2742,2.4190,-3.2200,1.0500,-3.1500,1.0000,0.0000,0.0000,0,0,0
1671462773865,7.2282,1.0275,1.8466,-3.8500,9.7300,-7.4200,1.0000,0.0000,0.0000,1,0,0
1671462773977,9.1753,1.5017,3.1902,-0.3500,-0.4200,3.3600,1.0000,0.0000,0.0000,0,0,0
1671462774089,9.9609,1.5520,3.3937,-3.2900,3.7100,-6.4400,1.0000,0.0000,0.0000,0,0,0
1671462774201,10.1166,1.6406,3.5446,-6.7200,8.1900,-4.7600,1.0000,0.0000,0.0000,0,0,0
1671462774313,9.7262,1.6286,3.2405,-3.3600,-1.9600,-3.5700,0.9999,0.0000,0.0000,0,0,0
1671462774424,10.1836,1.8082,3.6213,-1.9600,-0.8400,-0.3500,0.9999,0.0000,0.0000,0,0,0
1671462774536,10.1764,1.7436,3.4871,-1.6100,4.0600,-3.0800,1.0000,0.0000,0.0000,0,0,0
1671462774649,10.1764,1.7651,3.8320,-1.0500,-3.0800,0.9800,1.0000,0.0000,0.0000,0,0,0
1671462774761,10.2842,1.9328,3.5087,-0.3500,2.8000,1.8200,1.0000,0.0000,0.0000,0,0,0
1671462774873,10.3944,1.8537,3.6668,-1.1900,-1.6800,0.9100,1.0000,0.0000,0.0000,0,0,0
1671462774986,10.9812,1.9495,3.6811,0.0700,-3.7800,1.3300,1.0000,0.0000,0.0000,0,0,0
1671462775097,9.3310,1.6717,3.5638,0.3500,0.2800,-1.0500,1.0000,0.0000,0.0000,0,0,0
1671462775209,9.2735,1.6214,3.1063,-1.4000,-2.1000,-2.3800,1.0000,0.0000,0.0000,0,0,0
1671462775321,9.4196,1.7484,3.2836,-0.3500,-0.0700,0.7000,1.0000,0.0000,0.0000,0,0,0
1671462775432,9.5154,1.5089,3.1710,-1.3300,-3.6400,0.7000,1.0000,0.0000,0.0000,0,1,0
1671462775547,9.5418,1.7196,3.0369,0.0700,1.9600,-0.2800,1.0000,0.0000,0.0000,0,0,0
1671462775660,9.6735,1.7579,3.3315,0.2100,-0.1400,0.2800,1.0000,0.0000,0.0000,0,0,0
1671462775771,10.1501,1.8657,3.4153,0.2800,0.9800,1.8200,1.0000,0.0000,0.0000,0,0,0
1671462775883,11.5608,2.2130,4.3302,-0.8400,-7.4200,1.2600,1.0000,0.0000,0.0000,0,0,0
1671462775996,11.4745,2.0501,3.8584,-5.9500,11.6900,-1.6100,1.0000,0.0000,0.0000,0,0,0
1671462776108,10.4878,1.7316,4.0787,-8.7500,7.8400,-6.2300,1.0000,0.0000,0.0000,0,0,0
1671462776220,9.4412,1.6645,3.5973,-5.1800,5.6700,2.7300,1.0000,0.0000,0.0000,0,0,0
1671462776334,9.4028,1.8561,3.8248,1.9600,2.3800,-0.0700,1.0000,0.0000,0.0000,0,0,0
1671462776449,9.5705,1.7484,3.6931,3.7100,9.5900,-1.1200,1.0000,0.0000,0.0000,0,0,0
1671462776561,9.2256,1.7987,3.8751,1.4000,-7.9100,0.0000,1.0000,0.0000,0.0000,0,0,0
1671462776673,9.1442,1.7244,3.5877,2.3800,-4.7600,3.0800,1.0000,0.0000,0.0000,0,0,0
1671462776785,6.9168,1.3125,2.3806,5.3900,-11.4100,1.4000,1.0000,0.0000,0.0000,0,0,0
1671462776898,6.2366,1.0227,2.3136,3.6400,-12.2500,8.3300,1.0000,0.0000,0.0000,0,0,0
1671462777010,9.8914,1.6837,3.2045,3.2200,1.4700,11.2000,1.0000,0.0000,0.0000,0,0,0
1671462777122,9.5130,1.5113,3.1016,1.5400,0.1400,1.6100,1.0000,0.0000,0.0000,0,0,0
1671462777235,9.6016,1.4825,2.8956,1.7500,1.1200,1.3300,1.0000,0.0000,0.0000,0,0,0
1671462777347,9.6711,1.4945,3.1159,0.1400,-3.4300,0.4900,1.0000,0.0000,0.0000,0,0,0
1671462777460,9.6088,1.4083,3.0632,-1.1900,-0.9800,0.7700,1.0000,0.0000,0.0000,0,0,0
1671462777571,9.6376,1.4849,3.1327,-0.2100,3.1500,-1.5400,1.0000,0.0000,0.0000,0,0,0
1671462777689,9.5873,1.4514,3.0968,-0.1400,0.1400,0.0000,1.0000,0.0000,0.0000,0,0,0
1671462777806,9.5777,1.4921,3.1662,-0.2800,-1.1900,1.1900,1.0000,0.0000,0.0000,0,0,0
1671462777917,9.7094,1.4729,3.1399,0.1400,1.9600,1.1200,1.0000,0.0000,0.0000,0,0,0
1671462778029,9.5298,1.5663,3.1255,-0.2100,2.4500,0.2800,1.0000,0.0000,0.0000,0,0,0
1671462778143,9.3214,1.4873,3.1279,-0.8400,10.9200,-3.7800,1.0000,0.0000,0.0000,0,0,0
1671462778255,8.8209,1.3388,3.4009,-2.3800,-4.5500,-0.9800,1.0000,0.0000,0.0000,1,0,0
1671462778368,7.4725,1.3029,2.6489,-1.4000,-5.4600,-2.6600,1.0000,0.0000,0.0000,0,0,0
1671462778480,6.7156,1.0849,2.3016,-3.5000,9.4500,-8.8900,1.0000,0.0000,0.0000,0,0,0
1671462778592,9.6136,1.8346,3.6572,-4.1300,7.4900,-0.4200,1.0000,0.0000,0.0000,0,0,0
1671462778704,9.5202,1.6885,3.6548,-5.6700,8.8200,-8.6800,1.0000,0.0000,0.0000,0,0,0
1671462778816,9.7190,1.7627,3.9494,-5.2500,2.6600,-3.0800,1.0000,0.0000,0.0000,0,0,0
1671462778928,9.6735,1.9448,3.7937,-2.2400,-0.9800,-0.4900,1.0000,0.0000,0.0000,0,0,0
1671462779040,9.5082,1.7124,3.7099,-0.4900,-5.2500,0.9800,1.0000,0.0000,0.0000,0,0,0
1671462779152,9.7022,1.8490,3.8632,3.6400,-8.2600,0.3500,1.0000,0.0000,0.0000,0,0,0
1671462779263,10.4447,1.9998,3.9254,2.7300,-4.1300,3.0100,1.0000,0.0000,0.0000,0,0,0
1671462779375,10.5572,1.9687,3.8823,2.5900,0.2100,1.7500,1.0000,0.0000,0.0000,0,0,0
1671462779482,10.8159,1.9400,3.9039,0.7700,-5.7400,1.3300,1.0000,0.0000,0.0000,0,0,0
1671462779592,10.7488,1.9519,3.4824,1.2600,-5.3900,4.0600,1.0000,0.0000,0.0000,0,0,0
1671462779705,9.6783,1.7771,3.0752,-0.3500,4.3400,0.2100,1.0000,0.0000,0.0000,0,0,0
1671462779818,9.3047,1.5663,3.1375,0.0000,1.0500,-2.9400,1.0000,0.0000,0.0000,0,1,0
1671462779930,9.4292,1.6885,2.8668,-0.4900,-3.9900,-0.0700,0.9999,0.0000,0.0000,0,0,0
1671462780043,9.5298,1.7076,3.3937,-1.1900,-2.4500,1.9600,1.0000,0.0000,0.0000,0,0,0
1671462780154,10.0112,1.7053,3.4033,-1.8900,4.9000,0.0700,1.0000,0.0000,0.0000,0,0,0
1671462780262,11.4937,2.0477,4.0164,-5.8100,0.1400,3.2900,1.0000,0.0000,0.0000,0,0,0
1671462780369,11.6470,2.2058,4.4428,-4.4100,3.8500,-6.3000,1.0000,0.0000,0.0000,0,0,0
1671462780476,10.7177,1.9280,3.9901,-6.3700,-8.5400,-1.4700,0.9999,0.0000,0.0000,0,0,0
1671462780583,9.3406,1.8490,3.4416,1.4000,26.1100,-11.3400,1.0000,0.0000,0.0000,0,0,0
1671462780689,9.0867,1.6741,3.5710,-0.2100,10.9200,-4.4800,1.0000,0.0000,0.0000,0,0,0
1671462780795,9.7334,2.1052,3.8464,-0.7000,-6.2300,5.1800,1.0000,0.0000,0.0000,0,0,0
1671462780901,9.8387,2.0046,4.0835,2.8000,-15.9600,7.4900,1.0000,0.0000,0.0000,0,0,0
1671462781008,9.8004,1.6885,3.7650,2.4500,-8.2600,6.0900,1.0000,0.0000,0.0000,0,0,0
1671462781114,9.2400,1.7795,3.0345,8.7500,-0.9800,5.5300,1.0000,0.0000,0.0000,0,0,0
1671462781220,5.2858,0.8023,1.2765,15.8200,-16.3100,3.5000,1.0000,0.0000,0.0000,0,0,0
1671462781327,5.7912,0.6850,1.8011,7.2800,-1.6800,-0.2100,1.0001,0.0000,0.0000,0,0,0
1671462781432,10.6028,1.6286,3.5159,5.1100,6.6500,10.9200,1.0001,0.0000,0.0000,0,0,0
1671462781538,9.3358,1.4346,3.1159,-0.2100,8.3300,-6.0200,1.0001,0.0000,0.0000,0,0,0
1671462781643,9.5298,1.4825,3.1087,-0.7000,5.3900,-3.4300,1.0001,0.0000,0.0000,0,0,0
1671462781750,9.4675,1.5496,3.2644,-0.5600,-2.7300,-0.0700,1.0002,0.0000,0.0000,0,0,0
1671462781856,9.4891,1.7053,3.2620,-0.4200,0.7000,0.3500,1.0002,0.0000,0.0000,0,0,0
1671462781962,9.5537,1.5137,3.3698,0.2100,-2.5200,0.4200,1.0002,0.0000,0.0000,1,0,0
1671462782069,9.4963,1.5113,3.3123,0.6300,-1.8900,1.0500,1.0002,0.0000,0.0000,0,0,0
1671462782177,9.5609,1.5616,3.2237,-1.0500,-1.8900,0.2100,1.0002,0.0000,0.0000,0,0,0
1671462782282,9.4627,1.4562,3.1830,0.0000,0.0000,2.2400,1.0002,0.0000,0.0000,0,0,0
1671462782389,9.0053,1.4394,2.8620,1.0500,1.5400,3.5000,1.0002,0.0000,0.0000,0,0,0
1671462782495,8.4592,1.1712,2.8932,-1.6100,-5.1100,-0.5600,1.0002,0.0000,0.0000,0,0,0
1671462782602,7.5467,1.1281,2.4693,-3.0100,-4.3400,-1.8900,1.0001,0.0000,0.0000,0,0,0
1671462782712,7.4294,1.1616,2.4501,-2.8700,2.3800,0.0000,1.0001,0.0000,0.0000,0,0,0
1671462782820,9.6304,1.6286,3.1231,-4.0600,-0.8400,-0.2100,1.0002,0.0000,0.0000,0,0,0
1671462782927,9.3478,1.5328,3.1542,-2.8700,6.4400,-4.0600,1.0002,0.0000,0.0000,0,0,0
1671462783035,10.3153,1.6095,3.5183,-6.0200,-0.2100,-0.6300,1.0002,0.0000,0.0000,0,0,0
1671462783145,9.6328,1.6071,3.2788,-4.7600,-0.7000,-2.7300,1.0001,0.0000,0.0000,0,0,0
1671462783257,9.8723,1.6142,3.3602,-3.5700,-5.6700,-0.9800,1.0001,0.0000,0.0000,0,0,0
1671462783370,10.2770,1.7723,3.3147,-2.3800,-0.9800,-1.8200,1.0002,0.0000,0.0000,0,0,0
1671462783481,10.3944,1.6837,3.3746,1.5400,-0.9800,-0.6300,1.0001,0.0000,0.0000,0,0,0
1671462783592,10.6578,1.7723,3.4608,1.6800,0.2800,0.1400,1.0001,0.0000,0.0000,0,0,0
1671462783705,10.3321,1.8178,3.5039,1.4700,-2.0300,-0.4900,1.0001,0.0000,0.0000,0,0,0
1671462783818,10.9165,1.9064,3.5853,1.8200,-0.9100,1.4700,1.0001,0.0000,0.0000,0,0,0
1671462783929,9.6639,1.4490,3.1423,-1.6100,4.0600,1.1200,1.0001,0.0000,0.0000,0,0,0
1671462784041,9.5082,1.7484,3.0944,-2.0300,-0.7000,-1.5400,1.0001,0.0000,0.0000,0,0,0
1671462784153,9.1394,1.4993,2.9459,-0.6300,1.1900,1.7500,1.0001,0.0000,0.0000,0,0,0
1671462784265,9.7046,1.6502,3.0273,-1.6100,1.8900,0.1400,1.0001,0.0000,0.0000,0,1,0
1671462784377,10.2938,1.8897,3.1566,1.0500,1.1900,0.4200,1.0001,0.0000,0.0000,0,0,0
1671462784488,11.7619,2.0573,3.9039,-0.9100,-1.2600,5.5300,1.0001,0.0000,0.0000,0,0,0
1671462784599,11.3428,2.1340,3.8560,-2.0300,6.9300,-4.2000,1.0001,0.0000,0.0000,0,0,0
1671462784713,11.3141,1.9543,3.7746,-2.6600,-3.0100,-1.8200,1.0001,0.0000,0.0000,0,0,0
1671462784825,9.3765,1.8202,3.6668,-1.2600,13.3700,-7.1400,1.0001,0.0000,0.0000,0,0,0
1671462784936,9.0939,1.4586,3.2596,-2.9400,2.6600,0.7700,1.0001,0.0000,0.0000,0,0,0
1671462785049,9.7573,1.7220,3.5566,1.4700,-2.8000,3.7100,1.0001,0.0000,0.0000,0,0,0
1671462785162,9.7549,1.6238,3.4871,6.9300,-9.4500,2.8000,1.0001,0.0000,0.0000,0,0,0
1671462785274,9.4076,1.3388,3.3937,17.4300,-3.2900,4.1300,1.0001,0.0000,0.0000,0,0,0
1671462785386,9.0125,1.5999,2.9866,6.6500,-0.4200,5.1800,1.0001,0.0000,0.0000,0,0,0
1671462785499,6.9815,1.2454,2.1340,6.7900,-1.9600,-4.2700,1.0001,0.0000,0.0000,0,0,0
1671462785610,6.2462,0.6850,2.0166,4.4800,-1.1200,1.6100,1.0001,0.0000,0.0000,0,0,0
1671462785722,10.1597,1.9495,2.9962,7.4900,-10.5000,11.6900,1.0001,0.0000,0.0000,0,0,0
1671462785834,9.8651,1.6334,2.9578,1.0500,5.3900,-1.7500,1.0001,0.0000,0.0000,0,0,0
1671462785946,9.6088,1.4514,2.8620,1.8200,4.6900,3.8500,1.0001,0.0000,0.0000,0,0,0
1671462786059,9.5873,1.5807,3.0201,-1.1200,-3.5000,0.0700,1.0001,0.0000,0.0000,0,0,0
1671462786168,9.7573,1.4825,2.9842,-0.9800,1.1900,-0.8400,1.0001,0.0000,0.0000,0,0,0
1671462786279,9.5609,1.5041,3.1590,-0.5600,5.7400,-1.5400,1.0001,0.0000,0.0000,1,0,0
1671462786392,9.5202,1.5903,3.0297,-0.2800,-1.6800,0.0000,1.0001,0.0000,0.0000,0,0,0
1671462786504,9.6998,1.5759,3.1542,-2.8000,-0.4900,-0.5600,1.0001,0.0000,0.0000,0,0,0
1671462786617,9.7238,1.5304,2.9698,-0.9800,-4.6900,-2.7300,1.0000,0.0000,0.0000,0,0,0
1671462786729,9.5849,1.5520,3.1423,0.9800,6.3700,-1.9600,1.0000,0.0000,0.0000,0,0,0
1671462786842,9.5489,1.6166,3.0680,0.4900,-0.2800,1.8900,1.0000,0.0000,0.0000,0,0,0
1671462786955,9.5418,1.6047,3.1950,-0.2800,-2.1000,0.3500,1.0000,0.0000,0.0000,0,0,0
1671462787066,9.6040,1.5520,3.0129,0.9800,2.1000,0.9800,1.0000,0.0000,0.0000,0,0,0
1671462787178,9.2304,1.5400,2.9123,0.8400,-4.9000,5.1100,1.0000,0.0000,0.0000,0,0,0
1671462787291,9.2999,1.4011,3.0321,-0.9100,-2.1000,3.6400,1.0000,0.0000,0.0000,0,0,0
1671462787402,8.4640,1.2885,2.6561,-4.9000,2.7300,-0.5600,1.0000,0.0000,0.0000,0,0,0
1671462787515,7.3767,1.0083,2.3902,-6.1600,3.7100,-8.4000,1.0000,0.0000,0.0000,0,0,0
1671462787626,7.7718,1.2215,2.6968,-2.7300,2.3800,-4.2000,1.0000,0.0000,0.0000,0,0,0
1671462787738,9.1538,1.6789,3.2165,-2.8700,1.8200,-4.9700,1.0000,0.0000,0.0000,0,0,0
1671462787848,10.1261,1.9136,3.5806,-5.9500,7.1400,-5.6700,1.0000,0.0000,0.0000,0,0,0
1671462787960,9.6950,1.7029,3.3698,-5.0400,-0.6300,1.6100,1.0000,0.0000,0.0000,0,0,0
1671462788074,9.8986,1.7053,3.7482,-1.4000,-4.4100,0.8400,0.9999,0.0000,0.0000,0,0,0
1671462788180,9.8340,1.8370,3.4512,-0.5600,1.4700,-4.1300,0.9999,0.0000,0.0000,0,0,0
1671462788292,10.1070,1.9448,3.3722,2.0300,-3.4300,-3.9200,0.9999,0.0000,0.0000,0,0,0
1671462788405,10.1118,1.9040,3.5782,1.0500,-0.6300,0.7000,0.9999,0.0000,0.0000,0,0,0
1671462788516,10.4016,1.8873,3.4943,1.9600,-2.5900,1.5400,0.9999,0.0000,0.0000,0,0,0
1671462788628,10.3800,1.8370,3.6356,0.5600,-1.5400,3.7100,0.9999,0.0000,0.0000,0,0,0
1671462788739,10.5549,1.9615,3.4752,-0.2800,-3.6400,4.6200,0.9999,0.0000,0.0000,0,0,0
1671462788851,9.9753,1.8322,3.3698,-0.3500,-1.4000,0.9800,0.9999,0.0000,0.0000,0,0,0
1671462788962,9.3214,1.6142,3.1351,-2.4500,1.3300,-1.4700,0.9999,0.0000,0.0000,0,0,0
1671462789074,9.0771,1.5999,2.9890,-0.1400,4.1300,-1.5400,0.9999,0.0000,0.0000,0,0,0
1671462789187,9.2903,1.6430,3.2596,-0.0700,-2.3100,-1.2600,0.9999,0.0000,0.0000,0,0,0
1671462789300,9.6256,1.6669,3.4129,-1.0500,3.8500,0.4200,0.9999,0.0000,0.0000,0,0,0
1671462789411,10.3153,1.9400,3.5422,-0.6300,2.6600,-1.8900,0.9999,0.0000,0.0000,0,0,0
1671462789523,11.9703,2.3783,4.0907,-1.6800,1.8200,6.0200,1.0000,0.0000,0.0000,0,1,0
1671462789634,11.5655,2.1603,4.6751,-2.1000,-0.8400,-2.8700,1.0000,0.0000,0.0000,0,0,0
1671462789747,10.7680,1.9855,3.7578,-0.9100,0.7000,1.1200,1.0000,0.0000,0.0000,0,0,0
1671462789858,8.9717,1.6478,3.5111,0.2100,14.0700,-5.9500,1.0000,0.0000,0.0000,0,0,0
1671462789970,8.9238,1.6645,3.4536,-1.4700,3.7100,-0.9100,0.9999,0.0000,0.0000,0,0,0
1671462790081,9.3621,1.8609,3.4440,0.9100,-3.0100,2.1700,1.0000,0.0000,0.0000,0,0,0
1671462790193,9.4076,1.8346,3.6811,3.2900,-6.3700,0.1400,1.0000,0.0000,0.0000,0,0,0
1671462790308,9.1609,1.8130,3.2764,9.1700,1.3300,0.2100,1.0000,0.0000,0.0000,0,0,0
1671462790421,9.0843,1.8801,3.1471,9.5200,-1.8900,5.3200,1.0000,0.0000,0.0000,0,0,0
1671462790534,7.3982,1.3963,2.7399,9.3100,-1.4700,-0.4200,1.0000,0.0000,0.0000,0,0,0
1671462790647,6.8330,1.2981,2.6321,4.6900,4.3400,0.7700,1.0000,0.0000,0.0000,0,0,0
1671462790759,9.5058,2.0142,3.2285,3.5000,4.4800,5.8100,1.0000,0.0000,0.0000,0,0,0
1671462790872,9.5082,1.8011,3.6356,-1.6100,-1.7500,-1.1900,1.0000,0.0000,0.0000,0,0,0
1671462790985,9.4124,1.7388,3.2692,2.4500,1.8200,2.3800,1.0000,0.0000,0.0000,0,0,0
1671462791096,9.4052,1.7555,3.4273,1.0500,-3.5700,3.9200,1.0000,0.0000,0.0000,0,0,0
1671462791212,9.5465,1.7076,3.4105,0.2800,-3.5000,0.1400,1.0000,0.0000,0.0000,0,0,0
1671462791334,9.5465,1.6430,3.2788,-1.1900,-1.3300,0.7000,1.0000,0.0000,0.0000,1,0,0
1671462791446,9.5082,1.6909,3.3363,-0.7000,0.9800,0.5600,1.0000,0.0000,0.0000,0,0,0
1671462791557,9.4963,1.6861,3.2548,0.2800,-0.7000,-0.3500,1.0000,0.0000,0.0000,0,0,0
1671462791670,9.5130,1.7053,3.2932,-0.0700,-1.1900,-0.4200,1.0000,0.0000,0.0000,0,0,0
1671462791781,9.5585,1.7436,3.3506,-0.2100,-0.0700,0.9800,1.0000,0.0000,0.0000,0,0,0
1671462791893,9.5274,1.6286,3.2860,0.1400,-0.6300,0.4900,1.0000,0.0000,0.0000,0,0,0
1671462792005,9.5513,1.7196,3.2860,0.3500,-0.0700,0.2800,1.0000,0.0000,0.0000,0,0,0
1671462792118,9.5561,1.6717,3.2812,-1.1200,0.4900,0.4900,1.0000,0.0000,0.0000,0,0,0
1671462792230,9.5394,1.6334,3.2548,-0.1400,1.8900,-1.2600,1.0000,0.0000,0.0000,0,0,0
1671462792341,9.5058,1.7508,3.2716,-0.2100,0.6300,0.2800,1.0000,0.0000,0.0000,0,0,0
1671462792454,9.4915,1.6933,3.3770,-0.4200,1.4000,-0.2800,0.9999,0.0000,0.0000,0,0,0
1671462792568,9.4627,1.7005,3.3027,0.2800,-1.5400,0.4900,0.9999,0.0000,0.0000,0,0,0
1671462792680,9.5633,1.7508,3.3746,-0.1400,-0.7700,-0.9100,0.9999,0.0000,0.0000,0,0,0
1671462792791,9.4771,1.6813,3.3626,-0.2800,1.3300,-0.4200,0.9999,0.0000,0.0000,0,0,0
1671462792903,9.5202,1.7651,3.3698,-0.7700,1.4000,-0.4900,0.9999,0.0000,0.0000,0,0,0
1671462793017,9.4699,1.7316,3.4057,-0.5600,-0.2100,-0.4900,0.9999,0.0000,0.0000,0,0,0
1671462793132,9.4316,1.6621,3.3913,-0.2100,-0.8400,0.9800,0.9999,0.0000,0.0000,0,0,0
1671462793243,9.4124,1.6981,3.3530,0.2800,-0.5600,1.1900,0.9999,0.0000,0.0000,0,0,0
1671462793358,9.3142,1.6574,3.2812,2.3100,0.0700,4.0600,0.9999,0.0000,0.0000,0,0,0
1671462793469,9.0628,1.6621,3.0704,0.9100,-4.4800,1.6100,0.9999,0.0000,0.0000,0,0,0
1671462793581,8.4808,1.5544,3.0225,-0.7000,3.5700,-4.2000,0.9999,0.0000,0.0000,0,0,0
1671462793693,7.7311,1.3700,2.2753,-4.0600,-4.9000,-4.2700,0.9999,0.0000,0.0000,0,0,0
1671462793807,7.3695,1.2861,2.6704,-0.9800,-0.9100,-0.7700,0.9999,0.0000,0.0000,0,0,0
1671462793919,9.5250,1.8585,3.2932,-1.5400,0.3500,0.1400,0.9999,0.0000,0.0000,0,0,0
1671462794031,9.8148,1.8825,3.4967,-2.2400,3.5000,-2.0300,0.9999,0.0000,0.0000,0,0,0
1671462794142,9.7022,1.7484,3.3650,-1.3300,-3.2200,-2.0300,0.9999,0.0000,0.0000,0,0,0
1671462794254,9.4651,1.8202,3.4800,-0.1400,-1.1200,-0.5600,0.9999,0.0000,0.0000,0,0,0
1671462794367,9.6040,1.9376,3.3075,-0.9100,-1.1900,-1.4700,0.9999,0.0000,0.0000,0,0,0
1671462794479,10.0327,2.0430,3.5111,0.3500,-3.0100,0.0000,0.9999,0.0000,0.0000,0,0,0
1671462794593,10.6794,2.0358,3.6380,0.0000,1.4700,0.0700,0.9999,0.0000,0.0000,0,0,0
1671462794703,10.0327,1.8801,3.6979,1.5400,-1.4000,-0.5600,0.9999,0.0000,0.0000,0,0,0
1671462794817,9.8411,1.9328,3.5422,0.9100,0.9800,-1.3300,0.9999,0.0000,0.0000,0,0,0
1671462794931,10.2579,2.0430,3.5327,0.6300,-3.0100,2.3800,1.0000,0.0000,0.0000,0,0,0
1671462795043,10.7560,2.1004,3.6308,-1.1900,-5.8100,1.9600,0.9999,0.0000,0.0000,0,0,0
1671462795155,9.4819,1.9304,3.1303,-1.7500,6.7900,-2.5200,0.9999,0.0000,0.0000,0,0,0
1671462795268,9.4028,1.7939,3.2524,-0.9800,1.1200,-2.0300,0.9999,0.0000,0.0000,0,0,0
1671462795380,9.4963,1.8657,3.2500,-0.3500,-2.6600,2.3100,0.9999,0.0000,0.0000,0,0,0
1671462795492,9.5729,1.9184,3.1542,-1.1900,0.0700,0.9800,0.9999,0.0000,0.0000,0,1,0
1671462795602,9.6064,1.8993,3.4728,-0.1400,1.3300,-0.5600,0.9999,0.0000,0.0000,0,0,0
1671462795713,9.4603,1.8011,3.3363,0.0000,1.7500,0.4900,0.9999,0.0000,0.0000,0,0,0
1671462795818,9.5346,1.7987,3.2644,-0.4900,-0.6300,0.0700,0.9999,0.0000,0.0000,0,0,0
1671462795929,9.7022,1.7555,3.4967,-0.3500,-0.6300,2.3100,0.9999,0.0000,0.0000,0,0,0
1671462796042,12.3152,2.4094,4.5146,0.2100,-4.5500,1.9600,0.9999,0.0000,0.0000,0,0,0
1671462796153,11.9248,2.1675,3.9470,-3.7800,9.3800,-0.5600,1.0000,0.0000,0.0000,0,0,0
1671462796267,10.3585,1.7915,3.8153,-6.2300,4.8300,-1.8200,1.0000,0.0000,0.0000,0,0,0
1671462796379,9.2376,1.7053,3.4464,-2.5900,10.7100,-0.9100,0.9999,0.0000,0.0000,0,0,0
1671462796491,9.0628,1.6981,3.6764,-0.3500,-0.2800,1.4700,0.9999,0.0000,0.0000,0,0,0
1671462796607,9.5753,1.6741,3.6764,2.8000,-8.1200,0.9800,1.0000,0.0000,0.0000,0,0,0
1671462796721,9.3765,1.6813,3.4776,5.3900,-2.6600,1.1900,1.0000,0.0000,0.0000,0,0,0
1671462796833,9.0771,1.8226,3.1782,2.3800,0.9100,0.7000,1.0000,0.0000,0.0000,0,0,0
1671462796947,7.1276,1.2263,2.6872,5.3200,-6.6500,1.6800,1.0000,0.0000,0.0000,0,0,0
1671462797059,6.3851,1.0394,2.3280,5.6700,2.1700,-0.9800,1.0000,0.0000,0.0000,0,0,0
