Time;Ax;Ay;Az;Gx;Gy;Gz;BAR;P;R;UP;DOWN;prob
0;9.40285;3.50631;0.66582;0.42;2.31;0.77;992.18628;0;0;0;0;
1;9.66151;3.35542;0.85502;0.91;1.89;1.82;992.16919;0;0;0;0;
2;9.64474;3.44404;0.64666;1.54;1.75;-0.98;992.18774;0;0;0;0;
3;9.49625;3.33626;0.91729;-0.28;1.82;-0.49;992.18286;0;0;0;0;
4;9.55373;3.47278;0.8646;-0.35;-0.35;0.42;992.18408;0;0;0;0;
5;9.60882;3.42727;0.88616;-0.42;1.19;-0.42;992.22827;0;0;0;0;
6;9.54894;3.45122;0.90771;1.05;-1.12;-0.07;992.23291;0;0;0;0;
7;9.50344;3.44164;0.87897;0.63;0.42;-0.84;992.2207;0;0;0;0;
8;9.55134;3.42727;0.867;-1.33;-2.52;1.82;992.23706;0;0;0;0;
9;9.55134;3.33147;0.8191;-1.68;-0.07;-0.84;992.24585;0;0;0;0;
10;9.57289;3.48954;0.87179;-0.28;0.56;-0.35;992.26782;0;0;0;0;
11;9.59684;3.51589;0.92448;2.59;0.49;-0.77;992.27051;0;0;0;0;
12;9.54894;3.30034;0.81431;-0.7;-0.63;-0.21;992.26489;0;0;0;0;
13;9.49865;3.5566;1.00112;0.49;2.38;-0.21;992.28613;0;0;0;0;
14;9.6639;3.44164;0.93406;1.12;0.28;0.21;992.28174;0;0;0;0;
15;9.41722;3.68115;0.68977;-2.45;-0.84;-1.05;992.30225;0;0;1;0;
16;9.50104;3.64522;0.92927;1.4;1.05;-1.75;992.29785;0;0;1;0;
17;9.63037;3.53265;0.79515;-1.33;-0.14;-1.19;992.29663;0;0;1;0;
18;9.60403;3.53026;0.75683;-0.49;0.42;-4.2;992.2937;0;0;1;0;
19;9.24717;3.59013;0.4335;-0.98;4.48;-1.26;992.28931;0;0;1;0;
20;8.80888;3.20933;0.05748;-0.98;17.77999;0.77;992.29419;0;0;1;0;
21;6.71084;2.2585;0.16286;-15.95999;9.03;-2.1;992.2854;0;0;1;0;
22;6.00192;2.32077;1.05141;-22.25999;25.12999;-15.95999;992.30078;0;0;1;0;
23;6.7348;3.42488;2.08367;-18.61999;34.29999;-14.83999;992.2854;0;0;1;0;
24;8.08319;3.51589;2.72553;-24.07999;30.02999;-5.25;992.30273;0;0;1;0;
25;9.06275;4.38768;4.14099;-21.62999;28.27999;2.52;992.3147;0;0;1;0;
26;10.23152;4.17691;5.23072;-37.30999;22.81999;16.93999;992.33569;0;0;1;0;
27;9.84353;3.4632;6.61025;-9.17;10.92;-4.76;992.37598;0;0;1;0;
28;9.22801;3.70989;5.92288;-5.88;1.47;0.7;992.37573;0;0;1;0;
29;8.86157;3.1734;6.10251;-7.42;19.94999;19.17999;992.35352;0;0;1;0;
30;10.63389;3.16861;5.82948;-11.34;10.92;20.78999;992.33569;0;0;1;0;
31;10.16207;2.5962;6.01389;-7.56;-11.83;6.23;992.3689;0;0;1;0;
32;9.01725;2.71595;5.12295;0.28;-7.0;-4.62;992.35693;0;0;1;0;
33;9.10586;2.84528;5.60195;-2.8;-3.22;4.13;992.35205;0;0;0;1;
34;9.79084;2.99138;5.9636;-0.28;-3.64;8.75;992.34595;0;0;0;1;
35;10.36804;2.96982;6.3468;9.45;-8.89;7.21;992.35669;0;0;0;1;
36;9.67588;3.06563;5.94204;18.82999;-15.53999;5.04;992.37109;0;0;0;1;
37;9.46991;2.18905;4.66789;19.31999;-20.92999;9.38;992.37817;0;0;0;1;
38;9.69743;2.55549;4.0859;14.90999;-6.93;6.51;992.3916;0;0;0;1;
39;9.10586;2.60818;3.73384;4.97;2.52;6.23;992.38208;0;0;0;1;
40;8.5119;1.48491;2.41178;-32.82999;-1.33;11.55;992.39941;0;0;0;1;
41;7.96584;1.46336;4.02842;-38.21999;12.6;6.72;992.40015;0;0;0;1;
42;7.39582;1.40827;3.39135;-9.66;-14.49;-9.45;992.40991;0;0;0;1;
43;7.25212;1.25499;2.85486;-2.73;-29.39999;-25.68999;992.38721;0;0;0;1;
44;7.73831;2.42376;2.43094;3.15;-20.22999;-13.85999;992.38574;0;0;0;1;
45;8.97414;2.84768;2.89797;-6.37;-13.44;1.68;992.37988;0;0;0;1;
46;9.62079;2.60099;3.48715;-2.59;-6.58;4.48;992.37793;0;0;0;1;
47;9.09149;2.50519;1.93039;4.13;-12.39;0.84;992.37207;0;0;1;0;
48;9.63516;2.36867;2.21779;-5.32;0.98;4.48;992.37158;0;0;1;0;
49;10.06627;2.29682;2.98419;5.88;9.03;-1.75;992.38379;0;0;1;0;
50;9.52978;2.35909;2.51238;-2.87;-1.96;-1.19;992.37744;0;0;1;0;
51;6.54559;1.94236;1.96631;5.74;6.09;-13.58;992.36084;0;0;1;0;
52;6.16239;1.94236;2.22497;2.24;16.23999;-11.48;992.37769;0;0;1;0;
53;6.69408;2.54112;3.18298;-0.91;27.99999;-6.93;992.37061;0;0;1;0;
54;8.33467;2.97701;3.45122;-1.68;22.53999;9.66;992.39258;0;0;1;0;
55;11.58471;2.62015;4.25355;-4.9;10.71;7.91;992.40845;0;0;1;0;
56;8.73464;3.08239;3.90628;-12.6;-14.55999;-25.68999;992.4126;0;0;1;0;
57;7.96584;3.35542;4.44516;-15.60999;6.16;5.11;992.4126;0;0;1;0;
58;9.38369;3.40572;4.53856;-9.87;16.02999;10.99;992.40771;0;0;1;0;
59;10.01358;2.94108;5.57321;-3.85;15.32999;12.95;992.40869;0;0;1;0;
60;10.26505;2.32556;6.3013;-3.57;8.54;12.88;992.42017;0;0;1;0;
61;10.1956;2.56986;5.88935;3.78;0.98;12.18;992.41821;0;0;1;0;
62;10.07585;1.80105;5.39358;0.49;2.03;3.15;992.44238;0;0;1;0;
63;9.35016;2.12678;5.1948;0.21;-5.32;-2.24;992.42407;0;0;0;1;
64;9.12263;2.22737;4.96727;-1.61;3.36;-7.14;992.42139;0;0;0;1;
65;9.99681;2.5028;5.82948;-1.68;-3.64;2.03;992.42749;0;0;0;1;
66;10.46624;2.75188;6.13604;4.2;-10.85;6.44;992.41187;0;0;0;1;
67;9.2328;2.10762;4.94572;9.87;-25.68999;-0.63;992.40698;0;0;0;1;
68;9.53457;2.30401;4.60802;17.07999;-24.35999;-1.61;992.40796;0;0;0;1;
69;10.22673;2.30401;3.57337;4.48;-25.89999;3.22;992.40747;0;0;0;1;
70;10.38002;2.52435;3.65241;3.5;-6.16;-9.52;992.40503;0;0;0;1;
71;9.29028;2.68482;3.15185;-3.36;8.4;-8.47;992.42114;0;0;0;1;
72;8.74901;2.3064;4.038;-16.79999;12.95;4.97;992.40942;0;0;0;1;
73;7.97781;0.9604;3.42967;-37.51999;7.84;6.3;992.40942;0;0;0;1;
74;7.66885;1.6334;4.13141;-10.15;-9.94;-0.14;992.39771;0;0;0;1;
75;7.52994;0.94843;3.55181;-11.76;-29.60999;-20.36999;992.37598;0;0;0;1;
76;6.81383;1.89686;2.68242;13.37;-36.53999;-30.65999;992.35474;0;0;0;1;
77;9.05078;3.69312;2.00463;11.34;-7.98;8.89;992.3501;0;0;0;1;
78;10.03513;3.02251;2.15791;10.5;0.14;5.53;992.34717;0;0;0;1;
79;9.59684;2.0693;2.74469;-1.05;-9.94;5.81;992.33472;0;0;1;0;
80;9.48907;2.62734;2.33035;6.79;-0.91;-3.22;992.31592;0;0;1;0;
81;9.53936;2.78541;2.71835;15.04999;6.58;1.19;992.31177;0;0;1;0;
82;9.94652;2.93629;2.92671;30.65999;15.12;1.26;992.30713;0;0;1;0;
83;10.21715;3.01293;1.6813;22.81999;-3.22;2.45;992.31958;0;0;1;0;
84;9.34537;2.692;2.15552;13.64999;3.85;-5.67;992.33276;0;0;1;0;
85;7.81016;2.93629;0.22034;-0.91;-11.41;2.17;992.32202;0;0;1;0;
86;6.2055;1.87291;0.45745;-5.46;14.0;0.35;992.30933;0;0;1;0;
87;6.55517;2.01421;2.32556;0.98;19.45999;-15.81999;992.32056;0;0;1;0;
88;7.62095;3.24525;2.1148;-0.42;24.07999;-6.58;992.31934;0;0;1;0;
89;9.40764;3.38177;2.92432;-3.5;27.01999;4.62;992.33667;0;0;1;0;
90;10.15249;3.08239;3.82006;-11.55;26.10999;3.36;992.34839;0;0;1;0;
91;10.0016;3.97813;4.54575;-7.35;5.32;-0.49;992.34521;0;0;1;0;
92;9.0867;4.58407;4.43558;-1.82;-3.71;6.86;992.36572;0;0;1;0;
93;10.01597;2.3567;2.9818;-15.67999;-8.54;21.76999;992.38208;0;0;1;0;
94;10.17404;3.1279;4.58407;-7.0;22.18999;-3.92;992.37158;0;0;1;0;
95;10.23871;3.29794;5.4319;-19.31999;2.87;8.96;992.36279;0;0;1;0;
96;10.02076;2.61536;5.04391;-3.15;12.95;-1.12;992.34912;0;0;0;1;
97;8.8496;2.62494;5.07026;-1.4;12.39;1.89;992.36182;0;0;0;1;
98;8.72745;2.42855;4.57928;0.84;5.18;-1.05;992.35693;0;0;0;1;
99;9.49625;2.93629;5.21635;-4.76;-12.53;5.11;992.36523;0;0;0;1;
100;10.81112;3.5111;5.21635;9.17;-10.43;-0.07;992.37842;0;0;0;1;
101;11.17277;3.31231;5.23072;-1.33;-18.96999;6.16;992.38916;0;0;0;1;
102;10.95482;2.52914;4.07632;-8.12;-8.4;0.77;992.39111;0;0;0;1;
103;10.3872;3.11353;5.02715;-14.27999;-10.92;-5.46;992.40283;0;0;0;1;
104;9.3286;3.48236;4.76369;7.49;-10.15;-7.07;992.38574;0;0;0;1;
105;8.77056;2.82852;3.46799;7.35;-21.41999;-3.08;992.38647;0;0;0;1;
106;7.56108;2.43094;2.24892;16.37999;-21.06999;0.35;992.38403;0;0;0;1;
107;6.95514;1.67891;2.94108;23.44999;13.23;-5.39;992.3728;0;0;0;1;
108;7.90596;2.29922;1.84417;-6.09;-38.77999;-0.35;992.37573;0;0;0;1;
109;7.5036;1.67891;1.3963;5.81;-19.59999;-31.84999;992.37354;0;0;0;1;
110;8.34904;3.30992;2.01421;16.30999;-30.72999;-10.57;992.35352;0;0;0;1;
111;10.01118;4.21044;0.5269;7.07;6.23;-4.76;992.34839;0;0;0;1;
112;9.02204;3.61408;2.16031;6.58;-6.93;-5.32;992.34302;0;0;1;0;
113;8.88552;3.77455;0.06227;-1.75;-0.98;4.34;992.32471;0;0;1;0;
114;9.42201;3.75539;1.46575;-0.07;4.9;6.16;992.31299;0;0;1;0;
115;9.47949;3.79611;1.42264;-3.29;4.76;2.66;992.30713;0;0;1;0;
116;9.74533;3.35782;1.49689;-0.56;6.16;3.64;992.31372;0;0;1;0;
117;9.0867;3.6045;1.21188;-0.07;11.62;1.33;992.29272;0;0;1;0;
118;7.95386;2.36867;0.66342;-9.87;5.32;8.68;992.31006;0;0;1;0;
119;7.71436;3.03688;2.91474;-13.09;17.35999;6.37;992.30542;0;0;1;0;
120;7.50599;3.14227;2.41418;-2.17;19.66999;-6.72;992.31958;0;0;1;0;
121;6.78509;2.53633;2.71595;9.1;28.97999;-9.59;992.30859;0;0;1;0;
122;8.29395;3.44643;2.00463;-9.17;32.89999;5.46;992.3335;0;0;1;0;
123;9.7142;3.23328;4.3781;-37.23999;12.95;20.71999;992.35034;0;0;1;0;
124;9.72617;2.97461;3.72426;-21.34999;12.46;1.05;992.34985;0;0;1;0;
125;9.58966;3.32189;4.83315;-13.3;12.6;4.41;992.37524;0;0;1;0;
126;9.86509;3.07281;5.69536;-5.6;-0.91;2.94;992.37549;0;0;1;0;
127;9.6639;3.19496;5.21635;-7.42;3.29;3.43;992.37012;0;0;1;0;
128;11.2039;3.25483;5.79595;-4.83;-7.07;9.03;992.37402;0;0;1;0;
129;10.60994;2.79738;5.61393;-0.98;-6.44;-6.44;992.35522;0;0;0;1;
130;9.12982;2.60339;5.49657;3.01;0.14;-3.36;992.36694;0;0;0;1;
131;8.60291;2.4046;4.11943;4.83;0;-0.91;992.35767;0;0;0;1;
132;8.8496;2.58662;4.18889;1.05;-4.13;0.49;992.3689;0;0;0;1;
133;10.17404;3.05365;5.06068;-3.57;-2.59;6.09;992.37769;0;0;0;1;
134;11.2063;3.15424;5.08223;2.45;-8.61;3.57;992.38037;0;0;0;1;
135;11.0626;2.78541;4.40444;25.47999;-14.83999;-16.09999;992.3894;0;0;0;1;
136;9.91538;4.30625;4.1817;-2.24;-28.27999;-12.11;992.3833;0;0;0;1;
137;9.39327;3.58774;3.47038;7.49;-19.94999;-2.59;992.35034;0;0;0;1;
138;8.78014;3.40332;3.34345;14.13999;-13.79;2.45;992.33789;0;0;0;1;
139;8.24845;2.80217;2.1627;-19.66999;-5.81;23.02999;992.34424;0;0;0;1;
140;7.60658;1.88249;2.07169;-17.63999;-25.82999;12.74;992.34692;0;0;0;1;
141;6.18155;1.26457;0.77359;-23.72999;-10.57;-4.55;992.35034;0;0;0;1;
142;6.93837;2.07888;2.84768;17.63999;-9.03;-23.02999;992.35156;0;0;0;1;
143;9.77408;3.82964;0.63708;5.6;-17.07999;4.2;992.33813;0;0;0;1;
144;10.41833;3.28597;1.72681;1.26;9.8;2.1;992.32397;0;0;0;1;
145;9.54894;2.38544;1.89446;-3.99;-13.50999;-4.2;992.32275;0;0;0;1;
146;9.25915;3.14227;1.96152;-0.98;-6.23;-6.23;992.32153;0;0;1;0;
147;9.34058;3.42727;2.09804;-0.42;-3.99;0.21;992.30908;0;0;1;0;
148;9.37411;3.17101;1.21428;-1.4;-3.08;1.54;992.30078;0;0;1;0;
149;9.28549;3.19735;1.42504;-3.64;10.99;3.15;992.30151;0;0;1;0;
150;10.30337;3.3171;2.15312;-2.52;13.37;4.41;992.31006;0;0;1;0;
151;10.43031;3.71707;2.58423;14.76999;8.33;-10.85;992.33472;0;0;1;0;
152;8.4616;3.13029;-0.29459;-3.15;-23.86999;-2.66;992.32593;0;0;1;0;
153;6.27735;1.67891;1.41785;21.83999;18.12999;-15.46999;992.32861;0;0;1;0;
154;6.21268;2.68721;2.28245;0.91;30.02999;-7.35;992.3374;0;0;1;0;
155;6.97669;3.32668;2.01421;-9.59;33.03999;1.12;992.33496;0;0;1;0;
156;10.17165;3.45122;3.80569;-12.53;24.84999;-9.24;992.35962;0;0;1;0;
157;8.38975;3.87035;3.38177;-14.49;12.67;-12.04;992.34375;0;0;1;0;
158;8.83523;3.72905;4.60323;-14.83999;23.79999;8.26;992.35425;0;0;1;0;
159;9.46991;4.82357;5.06068;-3.99;16.16999;13.09;992.34131;0;0;1;0;
160;9.68546;3.23328;4.39486;-5.6;-0.21;16.79999;992.35229;0;0;1;0;
161;9.84832;3.51349;4.63915;-4.06;-7.91;2.66;992.35181;0;0;1;0;
162;9.28549;3.93981;4.20565;-2.17;-3.57;-0.56;992.35278;0;0;1;0;
163;9.36692;2.9794;4.11225;-12.95;13.92999;5.25;992.36523;0;0;1;0;
164;9.84832;3.81766;5.54208;-2.24;9.03;0.49;992.36987;0;0;1;0;
165;9.79084;2.7902;5.14211;-5.39;6.3;4.13;992.36841;0;0;0;1;
166;9.03401;2.97701;4.7589;0.35;1.75;-2.45;992.38843;0;0;0;1;
167;8.50471;2.77583;4.23439;-0.21;0.91;-1.26;992.38086;0;0;0;1;
168;8.09517;2.79499;4.07393;7.28;-2.1;-9.8;992.3728;0;0;0;1;
169;8.14546;3.49912;4.53617;5.11;-12.80999;-1.68;992.36328;0;0;0;1;
170;10.66981;2.29443;5.79355;4.48;-10.99;7.28;992.35669;0;0;0;1;
171;13.76418;3.16382;7.3575;-19.31999;-7.56;21.34999;992.36914;0;0;0;1;
172;11.41706;6.38512;3.68115;7.42;-12.11;-11.62;992.40039;0;0;0;1;
173;8.81607;2.77822;4.24397;-3.64;-24.84999;2.73;992.39795;0;0;0;1;
174;8.47358;2.52914;5.80792;1.61;4.2;8.89;992.3877;0;0;0;1;
175;8.57178;3.13508;3.08239;15.74999;-7.98;4.48;992.37598;0;0;0;1;
176;7.67843;2.28006;2.3064;-11.83;-16.51999;8.96;992.40967;0;0;0;1;
177;7.54192;1.86572;3.05365;-5.39;0.98;-0.14;992.41187;0;0;0;1;
178;7.19224;2.42376;2.28964;-13.44;-34.71999;-11.69;992.39917;0;0;0;1;
179;7.01022;2.34233;1.39869;3.78;-37.86999;-24.49999;992.39282;0;0;0;1;
180;8.80888;3.0297;1.65256;11.41;-19.66999;-5.95;992.4043;0;0;0;1;
181;9.61361;3.88712;0.53648;4.62;-4.06;0.63;992.38696;0;0;0;1;
182;9.29747;3.29315;1.20948;-4.76;-2.38;-0.35;992.3313;0;0;0;1;
183;9.48428;3.57576;1.27415;-5.95;-3.5;0.98;992.32251;0;0;1;0;
184;9.39566;3.6572;1.22625;-0.49;1.12;0.84;992.31177;0;0;1;0;
185;9.22562;3.37698;1.62382;1.26;-1.75;2.87;992.30884;0;0;1;0;
186;9.16335;3.32668;1.3005;-3.01;1.26;4.2;992.2876;0;0;1;0;
187;9.58487;3.24286;1.42743;-7.98;19.24999;-0.56;992.30615;0;0;1;0;
188;11.36916;4.03082;2.47166;8.12;3.5;1.33;992.30273;0;0;1;0;
189;9.27591;3.53505;0.57959;4.13;-1.75;-14.63;992.30542;0;0;1;0;
190;6.33004;2.62734;1.67891;-7.63;42.27998;-11.34;992.30029;0;0;1;0;
191;5.64746;2.29922;2.22737;9.45;42.13998;-1.47;992.30566;0;0;1;0;
192;6.19592;3.22849;2.96264;-6.02;41.43998;1.19;992.29639;0;0;1;0;
193;7.41738;3.32668;2.77583;-11.41;17.91999;12.67;992.29883;0;0;1;0;
194;8.42807;3.07281;4.15296;-15.88999;28.90999;12.6;992.30908;0;0;1;0;
195;9.89862;4.0883;6.55277;-3.5;29.74999;17.56999;992.33789;0;0;1;0;
196;10.06387;3.10395;6.01389;6.16;7.98;5.18;992.33496;0;0;1;0;
197;8.51429;3.48715;5.33131;-6.44;2.03;-9.45;992.32837;0;0;1;0;
198;8.27479;3.54942;5.61393;-3.01;18.33999;-1.96;992.33472;0;0;1;0;
199;8.99809;3.71947;6.40428;-2.1;15.32999;4.62;992.3501;0;0;1;0;
200;9.01006;3.42967;6.81862;-4.62;12.25;3.64;992.37378;0;0;1;0;
201;9.12982;3.2237;6.72043;-5.18;-5.11;8.12;992.37622;0;0;1;0;
202;8.63884;2.91713;6.54798;-0.07;-5.46;4.76;992.37549;0;0;1;0;
203;7.86764;2.76864;5.93486;6.93;-4.06;-1.61;992.36475;0;0;0;1;
204;7.35271;2.2609;4.33738;8.19;-2.73;-1.33;992.37305;0;0;0;1;
205;7.58503;2.57704;5.02236;9.1;-7.14;-2.73;992.3606;0;0;0;1;
206;9.4268;3.15664;4.92416;0.28;-21.62999;6.79;992.37695;0;0;0;1;
207;11.38113;4.29667;8.17899;-0.91;6.93;11.41;992.36548;0;0;0;1;
208;10.86141;3.21412;6.66055;-5.32;1.82;0.07;992.37036;0;0;0;1;
209;9.12023;3.0297;6.25579;-0.14;-13.37;-7.7;992.37646;0;0;0;1;
210;8.82565;3.37219;6.09054;8.82;-14.13999;2.31;992.33716;0;0;0;1;
211;8.53585;2.60339;4.93614;14.97999;-28.83999;7.42;992.32861;0;0;0;1;
212;7.56587;2.5507;3.07521;5.11;-39.54998;5.04;992.37207;0;0;0;1;
213;7.28086;1.56395;1.90165;-8.82;-27.50999;3.92;992.36694;0;0;0;1;
214;6.86892;1.05381;3.06323;-4.13;-39.47998;-12.32;992.36035;0;0;0;1;
215;6.57193;1.94955;1.97829;20.50999;-37.72998;-25.54999;992.35449;0;0;0;1;
216;8.92145;3.559;0.32812;20.36999;-20.50999;-2.24;992.35083;0;0;0;1;
217;10.60754;3.07281;0.99633;-12.32;15.32999;0.35;992.32153;0;0;0;1;
218;9.25436;2.84289;3.22609;4.62;-6.02;-6.44;992.30469;0;0;0;1;
219;9.3765;3.40093;1.09213;-2.52;-4.62;-4.06;992.29639;0;0;0;1;
220;9.27352;3.38177;2.43094;0.35;-1.82;-0.56;992.28809;0;0;0;1;
221;9.26633;3.37698;1.37714;-4.9;-6.58;4.48;992.28662;0;0;0;1;
222;9.50104;3.38895;1.96871;0.98;2.45;2.59;992.28735;0;0;1;0;
223;9.54655;3.26202;2.13636;2.45;2.03;2.17;992.30005;0;0;1;0;
224;9.67348;3.24525;1.62382;-1.61;0.84;0.84;992.30249;0;0;1;0;
225;9.62798;2.95545;1.56395;-3.08;0.42;-0.21;992.31421;0;0;1;0;
226;9.2352;3.18059;1.86812;-5.67;2.87;-3.01;992.30225;0;0;1;0;
227;9.78126;3.21651;1.66454;-8.05;17.14999;-7.14;992.3042;0;0;1;0;
228;11.08655;4.39247;2.7423;12.32;-3.85;-1.26;992.31592;0;0;1;0;
229;8.54304;2.9794;1.13763;23.79999;-6.44;-23.09999;992.31396;0;0;1;0;
230;4.88584;1.42743;0.71611;3.01;24.98999;-12.04;992.31519;0;0;1;0;
231;5.1948;2.62494;3.19496;-7.21;60.96998;7.98;992.29688;0;0;1;0;
232;7.59461;3.46559;3.53026;-6.09;40.73999;12.67;992.2998;0;0;1;0;
233;8.73703;2.80936;3.05844;-23.86999;38.98999;13.64999;992.3064;0;0;1;0;
234;9.54655;3.75779;5.98276;-24.56999;38.14999;8.26;992.30127;0;0;1;0;
235;9.19688;3.71468;6.66294;-6.93;14.27999;-3.15;992.33447;0;0;1;0;
236;8.13349;3.34345;5.65225;-3.08;5.25;1.68;992.32202;0;0;1;0;
237;8.4161;3.29076;6.1576;-3.08;8.26;2.1;992.34399;0;0;1;0;
238;8.86876;3.03688;5.99473;-0.84;2.17;5.32;992.35547;0;0;1;0;
239;8.84481;2.75188;5.99234;-6.44;-5.95;6.3;992.36572;0;0;1;0;
240;9.38848;2.7399;6.90724;-5.32;1.82;4.27;992.37891;0;0;1;0;
241;9.25196;3.34345;6.97909;3.01;-5.6;0.28;992.3689;0;0;1;0;
242;8.81367;2.61057;5.6738;1.96;0.35;-0.14;992.35474;0;0;1;0;
243;7.72633;2.3064;5.4319;-4.06;4.55;-1.89;992.35669;0;0;0;1;
244;7.39822;2.06451;5.13971;-2.38;9.73;-1.75;992.34985;0;0;0;1;
245;6.91921;2.02379;4.69903;-7.28;6.16;1.26;992.34644;0;0;0;1;
246;7.49641;1.91602;5.69775;-3.15;2.8;9.03;992.34155;0;0;0;1;
247;9.72378;2.68482;7.29044;-0.77;6.37;-0.35;992.37769;0;0;0;1;
248;11.0147;3.09437;9.17532;-2.45;-0.14;-3.29;992.36646;0;0;0;1;
249;10.55485;3.52786;8.58854;6.79;-14.90999;-2.1;992.38013;0;0;0;1;
250;9.53457;2.3567;6.73001;8.12;-23.58999;-6.51;992.39526;0;0;0;1;
251;8.33946;2.89558;6.14083;8.4;-31.98999;-5.67;992.38354;0;0;0;1;
252;8.2221;2.73272;5.75044;11.13;-21.27999;3.22;992.36816;0;0;0;1;
253;8.35143;2.57465;4.78285;11.97;-29.60999;11.55;992.35791;0;0;0;1;
254;7.71675;2.18665;2.44053;-7.56;-27.22999;6.44;992.33374;0;0;0;1;
255;6.86652;1.56874;3.29076;-5.46;-23.02999;-12.88;992.33643;0;0;0;1;
256;5.9612;1.48491;2.17228;3.43;-57.60998;-18.40999;992.33228;0;0;0;1;
257;7.43893;2.29203;1.12566;0.63;-42.90998;-21.48999;992.32983;0;0;0;1;
258;8.94779;3.62127;1.10171;9.8;-14.0;0.63;992.34473;0;0;0;1;
259;10.23631;3.02012;0.97477;-1.75;7.42;5.74;992.33691;0;0;0;1;
260;9.82677;2.886;2.68961;-4.13;-12.25;-3.36;992.32056;0;0;0;1;
261;9.25915;3.30513;1.40109;-1.68;-1.89;-8.33;992.33179;0;0;0;1;
262;9.10586;3.48475;2.02379;1.05;1.4;-1.05;992.32568;0;0;0;1;
263;9.44835;3.54702;1.60706;3.43;0.84;3.64;992.32373;0;0;0;1;
264;9.65432;3.26681;1.43462;5.46;4.34;-0.28;992.33105;0;0;1;0;
265;9.41722;3.6069;1.71962;1.75;0.14;2.31;992.31934;0;0;1;0;
266;9.44596;3.28118;1.51844;-1.96;1.89;-0.7;992.31689;0;0;1;0;
267;9.7597;3.52068;1.4418;-5.95;6.23;1.96;992.31519;0;0;1;0;
268;9.94173;3.39853;1.41785;-3.85;7.07;-5.18;992.32568;0;0;1;0;
269;9.65672;3.48236;1.21906;-7.77;9.87;-7.21;992.31177;0;0;1;0;
270;7.99697;2.88839;1.98547;-15.67999;23.16999;-8.12;992.302;0;0;1;0;
271;4.96967;1.73878;2.08846;-9.59;6.86;3.71;992.28052;0;0;1;0;
272;6.56714;2.91234;4.53617;-5.32;61.03998;4.9;992.2915;0;0;1;0;
273;8.24126;3.29076;3.01533;-5.39;17.70999;17.56999;992.31445;0;0;1;0;
274;8.50711;1.96392;3.13269;-7.7;39.40999;1.26;992.33081;0;0;1;0;
275;8.44484;4.01645;6.57193;8.54;46.12999;-7.21;992.33105;0;0;1;0;
276;9.16095;2.82133;5.63069;-4.9;15.18999;8.75;992.34375;0;0;1;0;
277;9.20406;3.96136;7.06531;1.75;8.89;-6.23;992.35498;0;0;1;0;
278;9.17053;3.36979;6.7324;-4.9;-5.11;1.12;992.36987;0;0;1;0;
279;8.80649;2.93629;6.45937;-2.66;-6.51;0.7;992.34863;0;0;1;0;
280;9.05796;3.32908;5.83666;0.84;-7.28;4.27;992.33838;0;0;1;0;
281;8.80888;3.08239;6.25819;-1.33;2.66;-2.45;992.33838;0;0;1;0;
282;8.66758;3.27399;5.45106;-0.49;-1.12;2.1;992.35986;0;0;1;0;
283;8.1742;2.71595;5.38879;-0.28;1.82;-2.87;992.3606;0;0;0;1;
284;7.71196;2.61776;5.30736;-1.82;3.99;0.28;992.36157;0;0;0;1;
285;7.58742;2.57704;5.02715;-2.38;2.87;2.87;992.36182;0;0;0;1;
286;7.34313;2.55788;4.66071;1.82;3.78;-1.33;992.35791;0;0;0;1;
287;8.16223;2.98898;5.54208;7.49;14.7;5.6;992.34424;0;0;0;1;
288;9.84832;3.25962;7.29762;-1.4;-4.34;5.88;992.3623;0;0;0;1;
289;10.33451;4.18889;7.47007;0.14;-6.3;7.63;992.36987;0;0;0;1;
290;10.88057;2.99138;7.36948;-0.21;-10.57;9.66;992.37354;0;0;0;1;
291;9.35255;2.87642;6.62702;-3.36;-14.49;-6.58;992.36743;0;0;0;1;
292;8.45442;3.21172;5.84624;5.39;-14.13999;-6.09;992.37012;0;0;0;1;
293;8.56459;2.84289;6.20071;11.97;-11.83;6.02;992.37183;0;0;0;1;
294;8.44723;2.46448;5.22593;19.59999;-24.70999;11.41;992.3916;0;0;0;1;
295;7.39582;2.43094;3.18059;27.57999;-42.27998;4.9;992.40186;0;0;0;1;
296;6.01629;0.89813;0.61313;-10.01;-33.17999;-12.11;992.38452;0;0;0;1;
297;5.87498;1.50647;2.40939;-11.55;-13.37;-28.69999;992.38916;0;0;0;1;
298;8.21731;3.7027;2.87163;10.22;-22.53999;-3.92;992.39258;0;0;0;1;
299;9.91299;3.70031;2.03577;5.18;0.07;6.65;992.37866;0;0;0;1;
300;9.09628;2.56986;3.08239;5.11;-7.42;-6.23;992.37476;0;0;0;1;
301;8.95258;3.40811;2.12917;-5.25;-5.11;1.33;992.36499;0;0;0;1;
302;9.31902;3.32668;3.53505;1.68;2.66;-0.35;992.35498;0;0;1;0;
303;9.25915;3.37937;2.34712;4.34;-3.71;1.82;992.36353;0;0;1;0;
304;9.7597;2.99856;2.39023;4.34;9.03;0.91;992.34448;0;0;1;0;
305;9.18729;3.21172;2.61297;-1.82;-0.28;-6.72;992.32471;0;0;1;0;
306;8.97414;3.65959;2.62494;-4.83;-4.06;-1.33;992.32886;0;0;1;0;
307;9.12742;3.47996;2.5962;-8.26;-4.55;-0.21;992.3335;0;0;1;0;
308;9.32381;3.18777;2.67524;-3.85;4.97;-0.49;992.34448;0;0;1;0;
309;9.09628;3.57337;2.692;-3.85;6.79;-2.66;992.35034;0;0;1;0;
310;8.55501;3.17819;2.23216;-5.95;12.04;6.23;992.34766;0;0;1;0;
311;7.81734;2.80217;2.90755;1.89;6.79;9.45;992.34155;0;0;1;0;
312;6.45218;2.22018;2.28485;-2.73;25.47999;0.56;992.32764;0;0;1;0;
313;5.70973;1.95434;2.61536;-3.36;16.72999;-4.97;992.32227;0;0;1;0;
314;6.23184;2.34712;2.88839;-10.08;18.82999;4.76;992.33154;0;0;1;0;
315;9.16335;3.21412;4.48108;-5.74;27.22999;24.98999;992.31812;0;0;1;0;
316;10.18123;2.9339;5.38879;-7.42;24.49999;17.21999;992.31909;0;0;1;0;
317;9.32621;2.86444;5.91091;-16.09999;8.89;11.89999;992.34717;0;0;1;0;
318;9.63995;2.53633;6.56714;0.98;21.48999;4.48;992.33594;0;0;1;0;
319;9.72139;2.28964;7.26649;0.98;22.11999;7.56;992.34692;0;0;1;0;
320;9.92017;2.30401;7.07489;5.67;13.71999;0.07;992.35864;0;0;1;0;
321;9.43159;1.65496;6.67492;0.77;8.54;-2.1;992.38574;0;0;1;0;
322;8.37299;2.45729;6.40189;-3.43;3.57;-3.15;992.35278;0;0;0;1;
323;7.84369;1.81542;6.24621;1.47;6.65;-3.85;992.36621;0;0;0;1;
324;7.30481;1.90404;5.83666;-0.63;-3.22;-0.7;992.37158;0;0;0;1;
325;7.50599;1.87051;5.99473;5.53;0.91;-0.49;992.38818;0;0;0;1;
326;8.15504;2.0669;6.50248;1.96;3.85;0.84;992.39258;0;0;0;1;
327;8.91905;2.20581;6.90005;-4.62;5.67;2.8;992.41333;0;0;0;1;
328;9.56331;2.28006;7.92991;-3.5;7.28;2.87;992.40967;0;0;0;1;
329;9.85311;2.3567;8.38257;-3.99;8.19;2.52;992.40625;0;0;0;1;
330;9.57768;2.20102;8.28677;-5.25;-5.67;-1.19;992.39331;0;0;0;1;
331;8.66997;2.15312;8.26282;5.95;-15.60999;-10.36;992.40552;0;0;0;1;
332;7.73831;1.76513;6.33962;12.67;-20.64999;-7.07;992.42871;0;0;0;1;
333;7.01741;1.55916;5.26186;1.68;-27.71999;-8.33;992.44067;0;0;0;1;
334;6.14323;2.0693;4.55293;7.49;-35.13999;-8.75;992.43604;0;0;0;1;
335;5.63069;1.51605;4.10506;10.43;-41.78998;-11.89999;992.42017;0;0;0;1;
336;5.73607;2.12678;3.4608;24.00999;-59.35998;-28.13999;992.40063;0;0;0;1;
337;7.80776;3.46559;0.61792;32.33999;-43.11998;-4.34;992.40454;0;0;0;1;
338;9.74055;3.21651;2.13636;14.97999;12.95;5.39;992.41553;0;0;0;1;
339;9.60882;3.07281;2.24413;-0.84;-19.38999;-4.2;992.41675;0;0;0;1;
340;8.6077;3.82245;2.39262;1.61;-1.68;-8.89;992.39478;0;0;0;1;
341;9.137;3.5087;2.43094;-0.07;-1.26;4.2;992.39575;0;0;0;1;
342;9.37171;3.59732;2.26329;-0.84;0.42;0.84;992.40674;0;0;0;1;
343;9.2831;3.82485;2.71356;-1.96;-0.91;-2.1;992.42163;0;0;0;1;
344;9.09389;3.55421;2.50519;0;-4.76;-0.21;992.43384;0;0;0;1;
345;9.09628;3.62606;2.26569;0.07;-0.77;1.05;992.44043;0;0;1;0;
346;9.19688;3.68354;2.5507;-0.77;-2.52;1.82;992.44385;0;0;1;0;
347;9.27112;3.62127;2.2609;0.7;-2.31;2.24;992.44116;0;0;1;0;
348;9.41722;3.65001;2.3088;2.87;-0.98;-0.7;992.43408;0;0;1;0;
349;9.59684;3.49673;2.02858;-0.84;0.56;-3.01;992.448;0;0;1;0;
350;8.82804;3.6045;1.36037;-3.78;8.54;-3.64;992.45483;0;0;1;0;
351;7.34553;2.89079;1.80105;-2.94;27.92999;-3.15;992.45532;0;0;1;0;
352;5.73368;2.05732;1.64059;-3.64;29.67999;-5.6;992.45166;0;0;1;0;
353;6.21029;2.81175;4.50503;-0.63;41.15998;-3.36;992.43799;0;0;1;0;
354;7.62335;3.52068;3.54942;13.09;24.14999;3.22;992.43115;0;0;1;0;
355;8.53825;3.59253;4.20326;0.7;31.07999;4.48;992.42822;0;0;1;0;
356;8.71548;3.69312;4.77806;-9.59;22.11999;0.91;992.43726;0;0;1;0;
357;9.20885;3.92065;6.95514;-22.25999;15.18999;7.91;992.44385;0;0;1;0;
358;8.07361;4.07632;6.3492;-11.13;-3.29;-0.42;992.45044;0;0;1;0;
359;8.3179;3.42488;6.37554;-0.42;8.12;17.84999;992.46753;0;0;1;0;
360;9.35495;2.82373;7.28565;-2.45;13.09;13.16;992.47534;0;0;1;0;
361;9.62319;3.12071;6.02826;-3.43;-2.17;13.01999;992.44995;0;0;1;0;
362;8.92863;2.87402;6.8785;1.4;5.95;1.12;992.4502;0;0;1;0;
363;8.19576;2.85486;5.78637;2.66;0.49;-2.52;992.44922;0;0;1;0;
364;7.76705;2.5986;5.12774;-0.35;2.94;3.22;992.46729;0;0;0;1;
365;7.9371;2.40699;5.55884;-2.73;5.11;1.05;992.47412;0;0;0;1;
366;8.23887;2.74948;6.15999;-3.08;2.17;4.97;992.47485;0;0;0;1;
367;8.81367;2.57704;6.31567;-0.7;4.2;-0.21;992.45581;0;0;0;1;
368;9.16335;2.49082;6.85934;-9.03;1.05;0.07;992.45874;0;0;0;1;
369;9.137;3.1758;7.89638;-2.31;2.87;1.4;992.44458;0;0;0;1;
370;9.26394;3.04407;7.73591;10.43;10.99;4.06;992.45215;0;0;0;1;
371;9.19688;2.74709;7.00543;10.92;-5.53;1.68;992.44409;0;0;0;1;
372;8.83283;2.57225;6.13604;11.48;-13.3;-1.89;992.45337;0;0;0;1;
373;8.07361;2.64171;6.2031;1.05;-29.67999;3.78;992.44507;0;0;0;1;
374;7.18266;2.12678;5.36245;0.84;-32.89999;5.6;992.44116;0;0;0;1;
375;6.94556;2.03577;3.91825;7.98;-37.16999;-0.35;992.43311;0;0;0;1;
376;6.61504;1.86572;2.95306;5.25;-50.95998;-4.34;992.42627;0;0;0;1;
377;6.86652;1.54239;2.69919;11.62;-63.76998;-11.2;992.42676;0;0;0;1;
378;7.47246;2.67763;0.88376;17.35999;-31.35999;-7.49;992.41553;0;0;0;1;
379;9.49146;3.32908;0.42152;0.7;-3.85;17.56999;992.39868;0;0;0;1;
380;10.12135;2.68721;1.71483;2.1;1.68;-3.57;992.41284;0;0;0;1;
381;9.72378;3.16143;1.62143;-1.12;-11.2;0.91;992.39185;0;0;0;1;
382;9.49146;2.85247;1.74597;-0.35;0.49;-5.53;992.37793;0;0;0;1;
383;9.51302;2.90995;1.75555;-4.06;-7.77;2.24;992.36108;0;0;0;1;
384;9.68067;3.08718;1.77471;-2.45;-1.33;-0.7;992.35376;0;0;1;0;
385;9.46991;3.32908;1.54239;-2.31;-4.13;-0.56;992.37744;0;0;1;0;
386;9.67348;3.25962;1.30529;-0.49;4.62;-2.59;992.35718;0;0;1;0;
387;9.80282;3.17101;1.16877;-3.5;5.46;-5.6;992.34839;0;0;1;0;
388;9.59445;3.14466;0.89813;-7.98;11.55;-6.93;992.34961;0;0;1;0;
389;8.64123;2.90755;1.79387;-13.64999;20.85999;0.77;992.34888;0;0;1;0;
390;8.23168;2.47885;1.43941;-13.71999;33.17999;0.56;992.36108;0;0;1;0;
391;6.51685;1.90165;2.44771;-16.86999;47.59998;-12.53;992.34009;0;0;1;0;
392;4.89063;1.50886;3.88712;-36.88998;24.70999;12.18;992.35278;0;0;1;0;
393;6.81862;3.07281;5.68338;9.87;33.24999;1.68;992.35913;0;0;1;0;
394;8.55262;2.68721;5.14929;18.05999;6.51;32.96999;992.3606;0;0;1;0;
395;10.76322;1.07057;5.19959;-9.03;6.79;26.94999;992.38013;0;0;1;0;
396;9.79084;3.37219;6.55038;6.72;11.48;-2.8;992.36182;0;0;1;0;
397;9.56571;1.05141;4.97925;-9.87;3.5;4.83;992.35303;0;0;1;0;
398;10.41833;2.93869;5.8199;4.06;13.09;-12.25;992.35596;0;0;1;0;
399;9.99921;2.4046;5.90612;-0.42;-15.67999;-20.50999;992.34839;0;0;1;0;
400;8.59812;2.93869;5.55166;3.15;-3.01;-15.74999;992.35352;0;0;1;0;
401;9.5202;3.04886;5.18522;-7.77;-2.87;8.61;992.36279;0;0;1;0;
402;9.80282;3.16622;5.50376;-3.08;-4.48;2.38;992.36792;0;0;1;0;
403;8.66518;2.61536;5.099;6.16;-6.51;-3.22;992.3772;0;0;0;1;
404;8.25563;2.20342;3.99968;0.7;-2.17;-1.47;992.39062;0;0;0;1;
405;7.71196;2.36628;4.12901;-6.37;3.64;1.89;992.38477;0;0;0;1;
406;8.00176;2.58183;4.34936;-3.01;5.95;5.32;992.36108;0;0;0;1;
407;8.74901;2.60099;4.85231;-5.39;11.2;10.22;992.37012;0;0;0;1;
408;10.03753;2.60818;5.65704;2.87;3.57;7.35;992.36523;0;0;0;1;
409;10.89255;2.77343;6.42823;-3.99;4.27;2.31;992.38379;0;0;0;1;
410;10.32253;2.81894;7.09405;5.39;-10.01;3.64;992.38403;0;0;0;1;
411;10.54527;3.26681;6.51445;12.74;-12.39;8.4;992.39331;0;0;0;1;
412;10.56922;2.27287;5.71212;26.66999;-24.91999;9.52;992.38086;0;0;0;1;
413;9.81479;2.23216;3.20933;31.63999;-31.28999;-1.4;992.36011;0;0;0;1;
414;9.20406;2.32796;3.6069;15.67999;-12.88;-4.27;992.36206;0;0;0;1;
415;8.69153;2.45969;3.83922;6.16;-16.86999;5.67;992.37573;0;0;0;1;
416;8.77056;1.81542;3.29555;13.79;-49.83998;-7.7;992.35571;0;0;0;1;
417;5.54687;1.37474;1.14003;23.37999;-66.28998;-28.69999;992.35181;0;0;0;1;
418;4.77327;1.22625;-0.09101;6.3;-45.21999;-27.57999;992.36426;0;0;0;1;
419;8.78733;4.12662;-0.42631;8.89;-7.84;11.34;992.36206;0;0;0;1;
420;11.42424;2.84768;0.0982;1.12;9.45;6.44;992.34595;0;0;0;1;
421;9.12742;2.62734;0.92927;0.7;-13.50999;-9.52;992.32056;0;0;0;1;
422;9.41003;3.47038;-0.34728;-2.38;0.42;-0.49;992.31689;0;0;0;1;
423;9.9537;3.24286;1.34361;3.22;0.98;2.66;992.31616;0;0;0;1;
424;9.7142;3.49194;0.39757;0.7;-2.1;-2.94;992.30957;0;0;1;0;
425;9.44596;3.39853;0.0958;0;-1.82;0.28;992.3147;0;0;1;0;
426;9.28549;3.45601;-0.19639;-4.76;6.16;1.75;992.31812;0;0;1;0;
427;10.13812;3.51828;0.31854;-6.44;6.37;3.99;992.33008;0;0;1;0;
428;9.80761;3.24046;0.18681;-8.19;3.85;-9.59;992.33813;0;0;1;0;
429;8.57657;3.37937;0.49816;-4.9;11.48;-1.61;992.31226;0;0;1;0;
430;8.67476;2.8381;0.60115;-3.43;32.40999;-2.24;992.31421;0;0;1;0;
431;6.15041;2.46208;1.49689;-18.75999;18.40999;-13.44;992.31323;0;0;1;0;
432;5.63069;1.3963;2.17468;-34.64999;13.09;-0.98;992.29272;0;0;1;0;
433;7.65688;4.94572;1.23823;-1.54;27.01999;-19.45999;992.27417;0;0;1;0;
434;9.96807;4.62957;3.22609;3.5;45.07998;23.51999;992.27832;0;0;1;0;
435;9.67348;2.18186;3.23328;-25.12999;15.74999;-2.8;992.28223;0;0;1;0;
436;9.19927;5.02236;3.53744;-17.42999;9.03;-0.42;992.27856;0;0;1;0;
437;9.81;3.80329;4.49545;-16.16999;12.18;9.8;992.27905;0;0;1;0;
438;10.56683;3.16622;5.79355;-2.24;7.0;5.6;992.28491;0;0;1;0;
439;10.40876;3.6045;4.93374;-3.92;7.49;5.6;992.31421;0;0;1;0;
440;10.69137;3.43206;5.5325;-1.26;0.77;5.25;992.35132;0;0;1;0;
441;9.89143;3.27639;4.90979;6.58;-2.94;1.26;992.35938;0;0;1;0;
442;8.85678;3.0776;3.32189;3.71;-11.55;0.35;992.35425;0;0;1;0;
443;8.1287;2.56507;3.0297;1.33;-0.35;4.41;992.3667;0;0;0;1;
444;8.79451;2.3567;3.79371;-4.06;0.77;8.4;992.35327;0;0;0;1;
445;9.24478;2.7423;4.48587;0.28;-3.92;2.59;992.35767;0;0;0;1;
446;9.21604;2.91234;3.97813;-1.68;-6.23;0.49;992.35083;0;0;0;1;
447;10.60515;3.16382;4.43079;-0.7;2.8;8.19;992.34985;0;0;0;1;
448;12.65289;3.38416;5.80792;2.73;3.01;8.33;992.32764;0;0;0;1;
449;11.78589;3.71947;5.02715;14.0;-5.81;-5.39;992.3418;0;0;0;1;
450;10.73927;3.00814;4.905;10.92;-22.04999;-2.31;992.33716;0;0;0;1;
451;9.91538;3.24765;3.8943;7.98;-29.74999;-0.84;992.32617;0;0;0;1;
452;9.51062;3.10874;2.77822;17.70999;-27.36999;1.75;992.33545;0;0;0;1;
453;7.69041;1.93997;1.54479;-1.12;-27.01999;4.13;992.32935;0;0;0;1;
454;4.79722;0.97956;2.14833;27.85999;-1.82;-14.83999;992.30737;0;0;0;1;
455;4.99601;2.04774;0.16765;27.43999;-55.15998;3.22;992.2959;0;0;0;1;
456;8.79691;2.28485;-1.56395;36.25999;-18.47999;3.64;992.28979;0;0;0;1;
457;10.99075;3.10634;0.11736;-16.02999;-0.98;-0.28;992.28613;0;0;0;1;
458;9.02683;3.08239;0.79275;-1.33;-9.73;-4.9;992.28198;0;0;0;1;
459;9.79563;2.74469;-0.41434;-8.75;3.92;6.79;992.28345;0;0;0;1;
460;10.34888;2.66566;0.78078;8.12;4.48;-2.1;992.27881;0;0;0;1;
461;9.72617;3.09197;0.75204;-6.09;-4.48;-5.74;992.27002;0;0;0;1;
462;9.65672;3.14227;0.36404;0.77;-0.91;-1.89;992.28589;0;0;0;1;
463;9.74533;2.9794;0.25387;-6.65;-5.74;2.1;992.28345;0;0;0;1;
464;9.73096;2.91713;0.20597;-2.87;-2.17;1.96;992.26392;0;0;1;0;
465;9.60403;3.01772;0.02395;-10.29;-1.47;1.12;992.25586;0;0;1;0;
466;10.03513;3.33866;0.76162;1.75;2.1;0;992.27393;0;0;1;0;
467;10.43989;2.9818;0.11975;-1.96;-7.98;-3.36;992.28442;0;0;1;0;
468;9.50344;3.09676;0.13891;10.01;-7.77;-4.34;992.28174;0;0;1;0;
469;8.23887;2.87402;-0.64426;-2.17;9.1;5.81;992.30249;0;0;1;0;
470;7.72873;2.50998;0.55564;20.22999;29.81999;11.62;992.30591;0;0;1;0;
471;6.08096;1.89446;-1.07297;-16.65999;-9.59;7.91;992.31079;0;0;1;0;
472;6.87371;0.9149;1.34361;0.49;35.76999;-4.97;992.31519;0;0;1;0;
473;8.44723;3.13269;1.85854;-7.63;37.93999;-2.66;992.29688;0;0;1;0;
474;11.58231;2.65129;1.92799;0.14;39.96998;13.3;992.30957;0;0;1;0;
475;11.30689;3.14227;2.79738;6.86;-0.07;-0.21;992.31958;0;0;1;0;
476;10.29379;2.3064;1.86812;-24.28999;-16.79999;14.27999;992.32471;0;0;1;0;
477;10.10938;2.62734;3.26441;-20.78999;-1.61;8.47;992.30981;0;0;1;0;
478;11.42664;2.58902;3.15424;-15.95999;3.36;26.38999;992.2876;0;0;1;0;
479;12.18347;1.08015;3.34584;-14.97999;-5.18;7.0;992.27417;0;0;1;0;
480;10.79675;2.04295;2.79259;-7.35;2.87;-0.42;992.26074;0;0;1;0;
481;10.50216;1.48252;2.77583;10.08;7.07;4.9;992.30054;0;0;1;0;
482;10.69137;1.47054;2.01661;7.7;0.77;-3.71;992.28442;0;0;1;0;
483;8.92624;1.16158;1.80105;-2.03;-4.34;-3.92;992.28149;0;0;1;0;
484;8.81607;1.32445;1.47533;-8.96;8.68;3.43;992.30566;0;0;0;1;
485;10.17644;1.24541;3.76018;3.01;25.68999;-4.83;992.29126;0;0;0;1;
486;11.64459;2.28964;2.75188;-2.66;3.15;-9.59;992.29663;0;0;0;1;
487;11.81224;2.4525;4.36852;-1.33;-0.49;-3.29;992.29639;0;0;0;1;
488;11.82661;2.29682;3.98292;-19.80999;-17.98999;3.64;992.28955;0;0;0;1;
489;11.57992;2.13157;2.97222;14.0;0.07;-8.89;992.3042;0;0;0;1;
490;11.36676;2.213;2.79978;2.52;-16.09999;-8.61;992.3125;0;0;0;1;
491;10.3369;2.49801;3.69312;10.22;-14.97999;-8.4;992.31396;0;0;0;1;
492;9.02443;2.48124;2.54351;6.37;-22.81999;2.87;992.31665;0;0;0;1;
493;8.0329;1.71962;1.36995;21.90999;-6.93;11.2;992.30469;0;0;0;1;
494;7.10602;0.79994;0.70893;-2.66;-26.59999;3.36;992.29761;0;0;0;1;
495;6.70845;1.21906;0.30177;-2.73;-32.47999;-13.85999;992.27881;0;0;0;1;
496;6.97669;1.50886;-0.90053;1.75;-23.72999;-15.12;992.28638;0;0;0;1;
497;10.45666;2.97461;-0.48858;0.63;-3.5;16.16999;992.28638;0;0;0;1;
498;10.39439;2.36149;0.05988;14.90999;6.86;-14.27999;992.27832;0;0;0;1;
499;9.76689;2.95066;0.479;-0.91;-12.67;-10.57;992.27637;0;0;0;1;
500;9.39327;2.85726;-0.59636;1.96;0.56;-8.33;992.26904;0;0;0;1;
501;9.63037;3.05605;0.27064;-0.28;-1.47;2.52;992.26514;0;0;0;1;
502;10.10459;2.79499;-0.20118;-1.54;-5.25;-0.98;992.26611;0;0;0;1;
503;9.68067;2.80696;0.22753;4.83;1.89;-3.22;992.27026;0;0;0;1;
504;9.67588;2.83331;0.08862;-5.74;-3.01;2.03;992.26147;0;0;1;0;
505;9.87706;3.0776;-0.06227;3.43;4.2;-0.56;992.26929;0;0;1;0;
506;9.91059;2.90037;-0.25627;-1.96;-1.82;0.7;992.27808;0;0;1;0;
507;9.77647;2.85247;-0.30177;0.42;2.66;-2.52;992.26587;0;0;1;0;
508;9.83635;3.17819;-0.60354;-2.31;4.76;-4.13;992.25781;0;0;1;0;
509;9.47949;2.73511;-0.94364;-7.91;10.99;-3.22;992.24268;0;0;1;0;
510;8.79212;2.72553;0.04551;-12.32;27.29999;-0.28;992.25269;0;0;1;0;
511;6.80425;1.53281;0.83107;-0.98;23.51999;0.77;992.24829;0;0;1;0;
512;5.32173;1.18553;0.3353;-22.74999;34.78999;-12.53;992.23706;0;0;1;0;
513;7.0701;3.4129;2.79738;11.83;46.40998;-4.06;992.26562;0;0;1;0;
514;9.97765;2.85247;2.76864;-9.1;40.73999;9.87;992.27612;0;0;1;0;
515;10.24589;3.77695;4.6176;-5.88;17.49999;1.26;992.2832;0;0;1;0;
516;10.23871;3.10634;4.87865;-2.1;-6.79;12.04;992.30518;0;0;1;0;
517;10.37043;3.24765;3.49673;-0.56;-9.1;3.01;992.28296;0;0;1;0;
518;10.44468;2.78062;3.9446;-3.57;10.15;7.56;992.28296;0;0;1;0;
519;10.97637;3.10874;4.17212;-13.01999;4.76;9.73;992.30884;0;0;1;0;
520;10.9644;2.30401;5.02715;4.62;15.81999;-1.82;992.32544;0;0;1;0;
521;9.81;2.63213;3.81527;-17.14999;2.52;-3.71;992.33545;0;0;1;0;
522;8.38736;1.6837;4.24397;-3.43;26.73999;-11.97;992.32886;0;0;1;0;
523;9.11545;2.56746;5.54208;-2.03;3.78;6.44;992.33569;0;0;0;1;
524;11.31407;1.36516;5.32413;-46.68998;-13.37;27.01999;992.35156;0;0;0;1;
525;11.34281;1.72441;7.07249;11.06;5.53;2.45;992.34009;0;0;0;1;
526;10.83028;1.21188;5.70254;0.56;-2.87;2.8;992.31787;0;0;0;1;
527;9.64714;1.15919;5.10858;9.31;-1.61;-7.35;992.34009;0;0;0;1;
528;9.37171;1.08015;4.16494;-4.48;-14.90999;2.73;992.33301;0;0;0;1;
529;9.45075;1.35798;4.0883;10.01;-11.06;-0.56;992.33521;0;0;0;1;
530;8.72506;1.07776;3.82724;27.85999;-10.78;-1.96;992.33203;0;0;0;1;
531;8.31311;0.64905;2.10762;-36.67999;-9.66;13.58;992.31152;0;0;0;1;
532;7.28565;0.30177;1.13045;-44.02998;44.65998;5.11;992.3064;0;0;0;1;
533;5.0487;-0.07904;-1.40827;-111.08996;101.84996;26.17999;992.29443;0;0;0;1;
534;-0.18202;-0.68498;0.21316;-162.25993;267.60989;75.03997;992.32617;0;0;0;1;
535;-6.32525;-2.0669;0.35925;-160.92993;366.16986;155.67995;992.31348;0;0;0;1;
536;-23.47119;-7.86524;7.73591;19.52999;435.18985;298.68988;992.3186;0;0;0;1;
537;-17.22498;-1.38193;5.35047;10.64;184.72993;36.46999;992.31421;0;0;0;1;
538;-9.43159;-4.45953;7.51797;122.07996;48.57998;-77.34998;992.3457;0;0;0;1;
539;-11.71404;-2.8381;4.62718;255.63991;52.70998;7.91;992.35205;0;0;0;1;
540;-12.61936;-3.67636;2.28245;48.43998;-131.52995;44.93998;992.35645;0;0;0;1;
541;-12.29364;-7.53713;3.16382;159.66995;-184.16994;-35.55999;992.34521;0;0;0;1;
542;-7.59461;-4.09309;2.75667;193.12993;-128.58995;-84.20997;992.36499;0;0;0;1;
543;-5.59237;-0.60115;3.59492;152.52994;-91.20996;-110.10995;992.39502;0;0;0;1;
544;-5.2403;1.61664;5.2403;73.98997;-47.87998;-80.56997;992.39624;0;0;0;1;
545;-5.2427;1.31247;7.0677;42.34998;-34.01999;-49.76998;992.3916;0;0;0;1;
546;-4.53856;0.96519;8.5119;30.72999;-17.98999;-57.81998;992.41895;0;0;0;1;
547;-4.85231;1.21667;8.85678;43.95998;-22.32999;-54.24998;992.41113;0;0;0;1;
548;-4.67268;1.825;8.6101;41.50999;-26.45999;-32.12999;992.40625;0;0;0;1;
549;-3.23328;2.04295;8.66997;44.79998;-23.72999;-13.3;992.41211;0;0;0;1;
550;-2.75188;1.90644;8.27479;35.76999;-14.55999;-8.33;992.41748;0;0;0;1;
551;-2.39741;2.77343;8.9454;34.64999;-6.51;-1.61;992.427;0;0;0;1;
552;-2.4022;3.54223;8.53345;24.91999;-15.12;-1.4;992.4397;0;0;0;1;
553;-2.36628;4.09309;8.27479;16.79999;-10.22;4.13;992.47168;0;0;0;1;
554;-2.29443;3.95178;8.40412;9.59;-6.37;2.59;992.45679;0;0;0;1;
555;-2.14354;4.09788;8.49992;11.62;-4.06;2.73;992.46045;0;0;0;1;
556;-2.00942;4.17691;8.40891;3.01;-6.93;3.85;992.44824;0;0;0;1;
557;-2.03816;4.14817;8.54543;-1.12;-4.41;0.84;992.42773;0;0;0;1;
558;-1.99026;4.6152;8.54304;4.2;-3.5;-2.8;992.42725;0;0;0;1;
559;-1.82021;4.42839;8.48076;2.59;-3.01;1.12;992.43335;0;0;0;1;
560;-1.72441;4.38768;8.32988;5.39;-0.7;-1.47;992.42993;0;0;0;1;
561;-1.99026;4.60323;8.38496;7.91;2.8;-5.95;992.4231;0;0;0;1;
562;-2.08367;4.83794;8.19576;4.48;-1.12;-1.89;992.43726;0;0;0;1;
563;-2.1172;4.52659;8.44723;0.14;-1.05;2.24;992.43384;0;0;0;1;
564;-2.02619;4.58167;8.39215;1.19;0.35;0.7;992.41528;0;0;0;1;
565;-1.99266;4.69663;8.29635;2.45;-0.56;0.42;992.40649;0;0;0;1;
566;-1.85614;4.55293;8.33706;2.52;-0.63;2.03;992.39526;0;0;0;1;
567;-1.98547;4.74932;8.23647;0.98;0.35;-3.36;992.3645;0;0;0;1;
568;-2.1172;4.94093;8.28437;0.21;-0.77;-1.19;992.35156;0;0;0;1;
569;-2.05732;4.74453;8.28916;0.7;-0.84;-0.21;992.34375;0;0;0;1;
570;-1.92081;4.79722;8.20055;0.98;-1.12;-0.98;992.35229;0;0;0;1;
571;-2.00703;4.56012;8.44244;-0.21;0.35;0.28;992.34155;0;0;0;1;
572;-2.02858;4.91219;8.24845;1.19;-1.96;-1.82;992.31738;0;0;0;1;
573;-2.1651;4.79243;8.34425;0.7;0;0.21;992.30811;0;0;0;1;
574;-1.88488;4.86189;8.22929;1.05;1.19;0.07;992.31006;0;0;0;1;
575;-2.01661;4.78285;8.28916;3.71;-0.07;-0.77;992.33936;0;0;0;1;
576;-2.00463;4.905;8.15744;6.37;1.54;-2.03;992.33252;0;0;0;1;
577;-2.07648;5.18043;7.92272;3.71;2.73;-1.82;992.34546;0;0;0;1;
578;-2.21779;5.00559;8.09038;1.61;0.77;1.05;992.34399;0;0;0;1;
579;-2.1172;4.93853;8.09277;1.4;2.31;1.68;992.33643;0;0;0;1;
580;-2.08846;5.12774;8.01134;2.66;0.98;0.84;992.3418;0;0;0;1;
581;-2.15552;5.01996;7.99458;0.21;1.82;1.33;992.33643;0;0;0;1;
582;-2.1172;5.29778;7.87961;1.26;-1.61;0.63;992.3313;0;0;0;1;
583;-2.1172;5.25228;7.91554;-0.7;-0.7;0.98;992.31738;0;0;0;1;
584;-1.96392;5.1948;7.92991;0.07;-0.56;0.28;992.32983;0;0;0;1;
585;-2.28485;5.07265;8.33467;0.91;1.47;-1.4;992.35034;0;0;0;1;
586;-2.08606;5.0966;8.28437;-4.13;-15.25999;4.27;992.33521;0;0;0;1;
587;-1.65017;5.30018;7.85087;-1.47;-6.23;2.8;992.32031;0;0;0;1;
588;-1.84417;5.05349;8.13349;-5.6;-1.19;3.08;992.30371;0;0;0;1;
589;-1.57353;4.98643;8.18618;-2.1;-2.73;1.82;992.29175;0;0;0;1;
590;-1.60945;5.00799;8.16223;-0.63;-2.03;-0.49;992.28857;0;0;0;1;
591;-1.70765;4.99841;8.2245;-2.17;-1.12;0.77;992.28589;0;0;0;1;
592;-1.67412;5.07265;8.21731;-0.14;-1.26;0;992.2959;0;0;0;1;
593;-1.50168;5.21156;8.04727;-2.24;-1.61;-0.7;992.34473;0;0;0;1;
594;-1.69328;5.03912;8.14786;-4.62;-0.28;-1.19;992.34814;0;0;0;1;
595;-1.56874;4.98883;8.21971;-5.39;0.56;-0.49;992.34912;0;0;0;1;
596;-1.66933;4.95051;8.31072;-4.97;0.14;-1.68;992.32837;0;0;0;1;
597;-1.53521;5.10618;8.14067;0.84;-0.07;-0.7;992.35229;0;0;0;1;
598;-1.71004;4.83794;8.25563;-2.17;0.91;0;992.3584;0;0;0;1;
599;-1.64059;4.87865;8.27719;-0.91;3.64;-0.84;992.36499;0;0;0;1;
600;-1.66214;5.03433;8.20773;4.06;-0.49;2.38;992.3728;0;0;0;1;
601;-1.67891;4.93614;8.13349;0.42;1.05;1.96;992.36328;0;0;0;1;
602;-1.61424;4.87387;8.17899;-3.57;4.48;-0.84;992.37891;0;0;0;1;
603;-1.73878;4.88105;8.24605;2.66;5.25;-3.85;992.41553;0;0;0;1;
604;-1.98787;5.42472;8.0784;2.31;-1.12;-2.52;992.42285;0;0;0;1;
605;-1.78908;5.19959;8.05206;3.22;1.33;2.17;992.44971;0;0;0;1;
606;-1.81782;5.39598;7.8365;4.34;2.38;-1.89;992.4248;0;0;0;1;
607;-1.98787;5.41993;8.14546;-0.42;1.4;-2.24;992.47607;0;0;0;1;
608;-1.90404;5.29539;7.87003;-0.21;-10.08;4.27;992.46631;0;0;0;1;
609;-1.61664;5.23312;7.66646;1.19;0.98;4.41;992.45239;0;0;0;1;
610;-1.79387;5.384;8.17181;-5.18;0.42;2.03;992.44775;0;0;0;1;
611;-1.68609;5.34808;8.2724;-9.24;-8.47;6.72;992.4519;0;0;0;1;
612;-1.48252;5.33131;7.85087;-1.96;-16.72999;7.56;992.44653;0;0;0;1;
613;-0.80952;5.01278;8.77056;-16.65999;-39.05999;11.76;992.44849;0;0;0;1;
614;0.18202;5.40316;8.29635;3.78;-58.51998;16.79999;992.46802;0;0;0;1;
615;1.85375;4.47629;8.59094;-16.58999;-34.92999;-3.43;992.50049;0;0;0;1;
616;1.35558;2.71595;8.10235;-8.68;6.79;-49.20998;992.54712;0;0;0;1;
617;-0.40715;5.7696;8.09996;-5.04;21.41999;-36.39999;992.64624;0;0;0;1;
618;-0.673;5.42711;8.81846;-1.4;5.95;-6.16;992.77856;0;0;0;1;
619;-0.41913;4.42121;8.67237;-17.98999;4.83;-7.84;992.88452;0;0;0;1;
620;-0.5772;4.42121;8.85678;-20.99999;1.75;-8.68;992.94092;0;0;0;1;
621;-0.66821;4.2799;8.66039;-9.66;-2.66;-0.42;992.93652;0;0;0;1;
622;-0.54846;4.00447;8.95737;-0.7;-0.91;2.24;992.93262;0;0;0;1;
623;-0.30656;4.32541;8.72506;-4.2;-2.73;6.23;992.90527;0;0;0;1;
624;-0.26824;4.02842;8.81607;-8.96;-4.97;6.79;992.88818;0;0;0;1;
625;-0.50774;4.03082;9.12263;-30.37999;0.63;-3.29;992.88452;0;0;0;1;
626;-0.19639;3.61408;9.12742;-18.12999;-3.64;2.73;992.90259;0;0;0;1;
627;-0.05269;2.50998;8.95019;-14.63;-3.22;5.46;992.87378;0;0;0;1;
628;-0.31854;2.24892;9.89862;-4.76;-5.81;0;992.83228;0;0;0;1;
629;-0.23232;3.71228;9.78126;30.58999;-2.52;5.53;992.73389;0;0;0;1;
630;0.14131;4.19847;8.21971;45.07998;14.0;16.93999;992.62646;0;0;0;1;
631;0.32812;3.71947;8.77535;29.67999;23.93999;0.98;992.56226;0;0;0;1;
632;-0.74246;4.11464;8.93103;18.19999;23.44999;-13.50999;992.49585;0;0;0;1;
633;-1.7316;4.63197;9.09389;4.83;0.49;-5.53;992.44482;0;0;0;1;
634;-1.13045;4.88584;8.71308;2.31;-7.28;-1.47;992.43823;0;0;0;1;
635;-0.71372;4.88584;8.27479;4.34;-4.55;3.15;992.42139;0;0;0;1;
636;-0.94603;4.43558;8.40891;-9.03;7.63;1.33;992.41968;0;0;0;1;
637;-0.95801;4.38528;8.69871;0.77;2.17;2.1;992.40698;0;0;0;1;
638;-0.80712;4.57688;8.70111;-5.95;3.29;3.57;992.41943;0;0;0;1;
639;-0.56522;4.67508;8.49992;-0.98;-2.87;-0.7;992.40869;0;0;0;1;
640;-0.76162;4.33259;8.94779;-0.42;-1.82;-0.98;992.41479;0;0;0;1;
641;-0.83107;4.44516;8.66279;-0.42;1.26;-1.47;992.41187;0;0;0;1;
642;-0.7712;4.60802;8.61968;3.64;-4.13;-1.26;992.43652;0;0;0;1;
643;-0.57241;4.6655;7.98979;-4.06;-1.19;5.6;992.42358;0;0;0;1;
644;-0.91729;4.38768;8.68674;-1.96;-3.01;1.33;992.4248;0;0;0;1;
645;-0.88376;4.56491;8.64123;-0.35;0.14;-3.29;992.40454;0;0;0;1;
646;-1.23104;4.44995;8.76817;1.26;3.01;2.1;992.39746;0;0;0;1;
647;-0.86221;4.55533;8.90468;-9.59;8.68;1.96;992.40186;0;0;0;1;
648;-0.70174;4.63676;8.7035;0.14;-2.31;-2.17;992.39355;0;0;0;1;
649;-0.68737;4.49785;8.72745;5.53;-6.02;-2.38;992.37915;0;0;0;1;
650;-0.66582;4.70142;8.64842;4.34;-3.85;-0.7;992.37769;0;0;0;1;
651;-0.58438;4.60562;8.56938;1.47;-0.77;0.7;992.3728;0;0;0;1;
652;-0.66821;4.58646;8.59333;0.77;-0.77;0.35;992.36035;0;0;0;1;
653;-0.58199;4.48348;8.62926;-0.91;0.21;1.54;992.35571;0;0;0;1;
654;-0.69695;4.63915;8.69392;-0.63;-1.33;-3.08;992.36694;0;0;0;1;
655;-0.56283;4.67268;8.51908;2.94;-0.63;0.77;992.36401;0;0;0;1;
656;-0.6275;4.36852;8.99569;-7.0;3.5;3.71;992.36719;0;0;0;1;
657;-0.64426;4.57688;8.59094;-2.24;-3.15;-0.91;992.34375;0;0;0;1;
658;-0.65384;4.52419;8.75619;-0.91;0.91;3.22;992.34741;0;0;0;1;
659;-0.55564;4.50743;8.66758;0.21;-1.61;-1.26;992.35449;0;0;0;1;
660;-0.44787;4.79004;8.64842;0.91;-0.56;-1.05;992.35352;0;0;0;1;
661;-0.50774;4.59844;8.69871;-0.42;-0.98;1.82;992.37134;0;0;0;1;
662;-0.45984;4.63436;8.67237;-2.38;-1.26;2.73;992.34326;0;0;0;1;
663;-0.49337;4.4715;8.65081;-1.89;-2.1;0.56;992.34229;0;0;0;1;
664;-0.48379;4.55533;8.74661;-1.89;-3.15;-3.29;992.35327;0;0;0;1;
665;-0.45984;4.43318;8.75619;-5.53;7.91;6.23;992.33179;0;0;0;1;
666;-0.51014;4.42121;8.77296;-0.28;-1.47;-1.12;992.30762;0;0;0;1;
667;-0.42871;4.53856;8.78014;0.56;-0.98;-3.43;992.30005;0;0;0;1;
668;-0.48858;4.22002;9.30944;-7.42;0.98;4.97;992.34814;0;0;0;1;
669;-0.38799;4.7134;8.58615;-0.42;-2.1;-1.19;992.3269;0;0;0;1;
670;-0.61073;4.40923;9.00288;-3.5;0.49;3.57;992.32788;0;0;0;1;
671;-0.41913;4.50982;8.65081;0.7;-3.08;0.63;992.32397;0;0;0;1;
672;-0.3832;4.48348;8.67716;2.38;-2.45;-0.63;992.30542;0;0;0;1;
673;-0.46703;4.63436;8.63884;3.15;-0.28;-1.89;992.32227;0;0;0;1;
674;-0.39039;4.68705;8.67716;2.03;0.42;0.21;992.34326;0;0;0;1;
675;-0.38081;4.6176;8.6556;-0.07;0.98;-0.28;992.34473;0;0;0;1;
676;-0.51493;4.66071;8.48316;3.99;-1.19;-0.91;992.3252;0;0;0;1;
677;-0.20597;4.70621;8.52148;-2.31;3.15;1.26;992.3606;0;0;0;1;
678;-0.3856;4.76609;8.47597;1.33;-3.36;-3.36;992.33301;0;0;0;1;
679;-0.47182;4.89782;8.57657;-0.21;1.19;3.15;992.3269;0;0;0;1;
680;-0.72809;4.42839;8.74901;1.19;-1.82;0.56;992.32349;0;0;0;1;
681;-0.24669;4.78285;8.63884;-4.2;1.82;2.03;992.33081;0;0;0;1;
682;-0.2898;5.07265;8.55262;-0.84;2.17;3.08;992.33252;0;0;0;1;
683;-0.08862;4.97685;8.52148;4.27;-4.27;-6.37;992.32764;0;0;0;1;
684;-0.67779;4.60083;8.43526;7.28;-23.44999;2.24;992.33301;0;0;0;1;
685;-0.56043;4.60802;8.22929;0.98;-3.92;3.92;992.34619;0;0;0;1;
686;-0.26345;4.78525;8.66997;-1.05;-3.15;0.77;992.32349;0;0;0;1;
687;-0.23471;4.67747;8.52388;-0.56;0.28;4.06;992.3042;0;0;0;1;
688;-0.37602;4.72777;8.62447;0.28;-0.21;-1.75;992.29639;0;0;0;1;
689;-0.4814;4.7589;8.55501;2.87;-1.26;-2.45;992.31738;0;0;0;1;
690;-0.39278;4.87147;8.53106;3.5;-0.14;1.61;992.32007;0;0;0;1;
691;-0.40715;4.91458;8.43765;1.68;-1.33;-1.54;992.32983;0;0;0;1;
692;-0.61073;4.68705;8.31311;-3.99;3.01;1.96;992.3313;0;0;0;1;
693;-0.5269;4.76609;8.67476;-3.92;0.49;-1.89;992.31323;0;0;0;1;
694;-0.33291;4.84752;8.56938;1.19;-3.71;0.56;992.29785;0;0;0;1;
695;-0.50056;4.63197;8.55741;-2.31;2.73;3.43;992.31909;0;0;0;1;
696;-0.43829;4.55293;8.658;2.8;-3.85;-3.01;992.30933;0;0;0;1;
697;-0.32572;4.74932;8.63884;3.71;-1.82;-0.63;992.31152;0;0;0;1;
698;-0.3377;4.67987;8.7059;1.89;-0.35;-1.54;992.31934;0;0;0;1;
699;-0.42392;4.52419;8.73464;5.6;-7.14;-3.92;992.32446;0;0;0;1;
700;-0.51014;4.56491;8.52627;-2.24;3.78;2.73;992.3335;0;0;0;1;
701;-0.50056;4.7134;8.53106;1.33;-3.92;-1.82;992.30566;0;0;0;1;
702;-0.34728;4.6152;8.50471;1.47;-0.7;0.42;992.31616;0;0;0;1;
703;-0.57001;4.51461;8.71069;0.98;-1.4;-1.4;992.30786;0;0;0;1;
704;-0.54367;4.65831;8.64363;0;-1.33;-1.75;992.28735;0;0;0;1;
705;-0.43589;4.68466;8.66279;-1.89;4.48;1.33;992.2876;0;0;0;1;
706;-0.25148;4.73495;8.59573;-2.87;2.17;2.38;992.30518;0;0;0;1;
707;-0.34249;4.77806;8.56699;2.24;-0.77;-0.42;992.32373;0;0;0;1;
708;-0.27064;4.77806;8.58615;0.07;0.98;1.75;992.31738;0;0;0;1;
709;-0.40236;4.72777;8.65321;-0.49;-0.07;1.19;992.32227;0;0;0;1;
710;-0.33291;4.80201;8.55501;0.35;-1.05;0.77;992.34521;0;0;0;1;
711;-0.34009;4.84512;8.47837;-0.49;-0.21;0.84;992.35718;0;0;0;1;
712;-0.1461;5.07026;8.49753;-3.78;-0.14;6.51;992.35229;0;0;0;1;
713;-0.38799;4.79722;8.74901;0.14;-4.62;-3.36;992.3501;0;0;0;1;
714;-0.34009;4.63676;8.53106;-2.17;2.03;1.96;992.34741;0;0;0;1;
715;-0.36644;4.64394;8.64842;3.99;-3.85;-11.06;992.32861;0;0;0;1;
716;-0.35925;4.93135;8.5095;1.61;-0.14;-0.28;992.33472;0;0;0;1;
717;-0.53888;4.78046;8.59812;0.49;2.8;-0.14;992.34155;0;0;0;1;
718;-0.31854;5.07744;8.51908;1.12;-0.07;-0.7;992.35693;0;0;0;1;
719;-0.3856;4.97925;8.57657;3.85;-3.36;-1.75;992.38306;0;0;0;1;
720;-0.10538;4.99841;8.50232;1.54;-4.55;3.5;992.3855;0;0;0;1;
721;-0.16047;5.1445;8.44723;3.71;-4.97;-1.05;992.34619;0;0;0;1;
722;-0.21555;4.80201;8.52627;-0.07;0.7;4.48;992.32886;0;0;0;1;
723;0.02156;4.94811;8.43526;6.93;-0.7;-2.38;992.2937;0;0;0;1;
724;-0.26345;5.03673;8.36341;14.27999;0.98;-9.17;992.28882;0;0;0;1;
725;-0.40715;5.3361;8.37778;9.03;7.07;-0.7;992.30127;0;0;0;1;
726;-0.65384;5.67141;8.15983;-2.38;-1.89;-2.38;992.29541;0;0;0;1;
727;-0.36165;5.31215;8.20294;-3.01;-3.71;4.34;992.35425;0;0;0;1;
728;-0.2898;5.06068;8.15025;1.26;0.98;1.33;992.35278;0;0;0;1;
729;-0.63229;5.14211;8.47837;-7.21;2.52;-1.47;992.3645;0;0;0;1;
730;-0.46224;5.07744;8.52627;-13.01999;0.84;3.78;992.3501;0;0;0;1;
731;-0.39757;4.93135;8.34185;-4.48;-5.6;2.03;992.33423;0;0;0;1;
732;-0.33291;4.91937;8.33706;0.07;-2.59;-0.7;992.323;0;0;0;1;
733;-0.50535;4.84273;8.57896;0.7;0.42;-1.75;992.3252;0;0;0;1;
734;-0.35446;5.07984;8.5119;-0.42;-1.47;-0.21;992.30762;0;0;0;1;
735;-0.35925;4.92656;8.464;0.42;-0.56;1.54;992.30884;0;0;0;1;
736;-0.42631;4.90261;8.42089;2.1;1.54;2.31;992.36279;0;0;0;1;
737;-0.17484;4.97206;8.62686;-1.33;-2.17;4.34;992.34375;0;0;0;1;
738;-0.20358;4.89063;8.47597;0.49;-3.5;-0.91;992.33838;0;0;0;1;
739;-0.2874;4.75651;8.50232;-2.31;-0.14;1.4;992.34253;0;0;0;1;
740;-0.31375;4.82836;8.47118;1.12;-1.19;-3.08;992.32324;0;0;0;1;
741;-0.34728;4.88105;8.50471;-0.77;-0.28;-2.8;992.30713;0;0;0;1;
742;-0.23232;5.09181;8.60052;-1.47;-1.47;-1.19;992.30347;0;0;0;1;
743;-0.19639;5.01996;8.5598;0.7;-3.43;-0.77;992.31079;0;0;0;1;
744;-0.20358;4.9074;8.55501;-0.91;3.5;2.8;992.2998;0;0;0;1;
745;-0.39757;4.70142;8.6556;-1.19;2.17;3.08;992.29443;0;0;0;1;
746;-0.18442;4.81878;8.56699;0.56;-0.7;2.1;992.29248;0;0;0;1;
747;-0.32812;4.86189;8.52627;1.54;-0.77;0.14;992.30688;0;0;0;1;
748;-0.11017;4.8092;8.59094;-3.71;3.57;2.8;992.31323;0;0;0;1;